Timestamp,AccelX,AccelY,AccelZ,GyroX,GyroY,GyroZ,AudioLevel,LightLevel,Weather
135122.332,-0.002218867652118206,-0.009229212999343872,0.00025576353073120117,-0.0014748930698260665,-0.00011074224312324077,-0.0012621944770216942,0.06722516,57.043552,Clouds
135122.362,-0.0026812972500920296,-0.008973556570708752,0.001507580280303955,0.0006359948311001062,-0.0008894465863704681,-0.0003201536601409316,0.061897255,57.043552,Clouds
135122.392,-0.001082923263311386,-0.007925115525722504,4.357099533081055e-05,-0.0007582299876958132,-0.00011481503315735608,0.0010150978341698647,0.055815723,57.043552,Clouds
135122.422,-0.002718842588365078,-0.01051156222820282,-0.0009325742721557617,-0.001848047599196434,-0.0016704766312614083,-0.0014078461099416018,0.060791023,57.043552,Clouds
135122.452,-0.0037939241155982018,-0.009775406681001186,-0.00024569034576416016,-0.0004006319213658571,-0.0012693229364231229,-0.000614809338003397,0.052076384,57.043552,Clouds
135122.482,-0.0009956080466508865,-0.008048871532082558,-0.0007488131523132324,0.0016344101168215275,-0.0011829776922240853,-0.0011076170485466719,0.049742352,57.043552,Clouds
135122.512,-0.0020371945574879646,-0.008378135040402412,0.0018913745880126953,-0.0017280507599934936,-0.0018651816062629223,0.0005856703501194715,0.04573162,57.043552,Clouds
135122.541,-0.0022650612518191338,-0.009034458547830582,-0.0003362298011779785,0.002002225024625659,-0.00027194086578674614,0.0012702487874776125,0.042527653,57.043552,Clouds
135122.571,-0.0011623166501522064,-0.00835699588060379,0.00016832351684570312,-0.00043063494376838207,-0.0029090719763189554,3.6641082260757685e-05,0.04143283,57.043552,Clouds
135122.601,-0.0029535628855228424,-0.009651636704802513,0.00027507543563842773,0.0010338656138628721,0.0005050814361311495,-0.0008060730760917068,0.03877324,57.043552,Clouds
135122.631,-0.00253473874181509,-0.009093163534998894,0.00103837251663208,0.001293377485126257,-0.0012767432490363717,-0.00023763650096952915,0.03746236,57.043552,Clouds
135122.661,-0.0018258001655340195,-0.008071472868323326,-0.0007316470146179199,-0.0022063557989895344,0.0001276932016480714,-5.85037050768733e-05,0.053035416,57.043552,Clouds
135122.691,-0.0017479974776506424,-0.009265453554689884,-0.0005179643630981445,-0.0010122470557689667,-0.002577324863523245,2.9438291676342487e-05,0.07979834,57.043552,Clouds
135122.721,-0.002935905009508133,-0.009134679101407528,0.0005809664726257324,-0.0007442347705364227,7.561943493783474e-05,-0.0007977568311616778,0.08118023,57.043552,Clouds
135122.751,-0.0019417675212025642,-0.009041381999850273,0.0005661249160766602,-0.0004585550632327795,-0.0019097363110631704,0.0006311786128208041,0.071104,57.043552,Clouds
135122.780,-0.0009746327996253967,-0.00910976342856884,-0.00042569637298583984,0.002488166093826294,-0.0011803602101281285,0.00014457548968493938,0.06652382,57.043552,Clouds
135122.810,-0.0014515537768602371,-0.008517399430274963,-0.00027251243591308594,0.003168946597725153,0.0013924746308475733,0.0008562862640246749,0.06340816,57.043552,Clouds
135122.840,-0.0021267468109726906,-0.008841801434755325,0.0006888508796691895,-0.0012848788173869252,-0.0021468589548021555,-0.002824411727488041,0.05653977,57.043552,Clouds
135122.870,-0.0018506255000829697,-0.008191975764930248,0.0005210041999816895,0.000743132084608078,-0.0014950354816392064,0.00027943970053456724,0.052994933,57.043552,Clouds
135122.899,-0.0026143770664930344,-0.007984168827533722,0.00038433074951171875,0.0009019509889185429,-0.0005470817559398711,0.0014232498360797763,0.05206149,57.043552,Clouds
135122.929,-0.0033782552927732468,-0.008907422423362732,3.355741500854492e-05,-0.0010525834513828158,7.069272396620363e-05,0.0024859653785824776,0.049348723,57.043552,Clouds
135122.959,-0.001076744869351387,-0.00811756495386362,-0.002102792263031006,-0.0018167579546570778,0.0009480549488216639,0.0019078290788456798,0.04614967,57.043552,Clouds
135122.989,-0.0023377276957035065,-0.0075663053430616856,-0.0019039511680603027,0.0006909084040671587,0.0006499887676909566,-0.0014584437012672424,0.043950867,57.043552,Clouds
135123.019,-0.0026343930512666702,-0.008029470220208168,0.0012548565864562988,-0.0005638296715915203,0.0002588391653262079,0.0009831333300098777,0.040715817,57.043552,Clouds
135123.048,-0.001589382067322731,-0.008451469242572784,-0.0020256638526916504,-0.00148734578397125,-0.0017471200553700328,0.002101877238601446,0.038322043,57.043552,Clouds
135123.078,-0.0007834313437342644,-0.009893856942653656,0.0026437044143676758,-0.0014648427022621036,0.0009919096482917666,0.00032606619060970843,0.036570705,57.043552,Clouds
135123.108,-0.0023236721754074097,-0.008291035890579224,9.584426879882812e-05,-0.0004842353519052267,0.0012664146488532424,0.0002251937403343618,0.034738004,57.043552,Clouds
135123.137,-0.002421359531581402,-0.008466919884085655,-0.000835120677947998,0.002845899434760213,0.0018829936161637306,0.00043419786379672587,0.030467806,57.043552,Clouds
135123.167,-0.0012582037597894669,-0.008062487468123436,-0.0005144476890563965,0.001641655806452036,0.0003351621562615037,0.0020542603451758623,0.029576095,57.043552,Clouds
135123.198,-0.0016234349459409714,-0.008031466044485569,0.00014197826385498047,-0.0007385991048067808,-0.0005146944895386696,-0.00011915311915799975,0.036174867,57.043552,Clouds
135123.227,-0.003558962605893612,-0.00818341039121151,-0.00020813941955566406,-0.0003103367052972317,-0.0003059356240555644,0.00038327471702359617,0.034044832,57.043552,Clouds
135123.257,-0.001764615997672081,-0.00811775028705597,-0.0004825592041015625,-0.0010715678799897432,0.000680751574691385,-0.0007248912006616592,0.03230898,57.043552,Clouds
135123.287,-0.0009493613615632057,-0.0069805653765797615,-2.4557113647460938e-05,0.0012553350534290075,0.0005290020490065217,-0.00035102199763059616,0.0274993,57.043552,Clouds
135123.317,-0.0008795084431767464,-0.008132636547088623,-0.0003598332405090332,0.0012048780918121338,0.0011819672072306275,0.0006651312578469515,0.025501203,57.043552,Clouds
135123.346,-0.0032518450170755386,-0.008516796864569187,0.0009986162185668945,0.0009151545818895102,-2.9768983949907124e-05,0.0005256792646832764,0.023421371,57.043552,Clouds
135123.377,-0.0005601812154054642,-0.007126256823539734,0.0006481409072875977,0.0014060523826628923,0.0009344721329398453,0.0004298808635212481,0.023027303,57.043552,Clouds
135123.406,-0.00014089420437812805,-0.007778518833220005,-0.0003432631492614746,-0.0021223346702754498,0.0001737427373882383,-0.00020074681378901005,0.032510903,57.043552,Clouds
135123.436,-0.002287798561155796,-0.008184808306396008,-0.0007248520851135254,-0.00046297372318804264,0.001074841246008873,-0.0009969051461666822,0.03843918,57.043552,Clouds
135123.466,-0.0028568729758262634,-0.008373277261853218,-0.00040459632873535156,0.0007956554181873798,0.0019860391039401293,0.0020412569865584373,0.0359056,57.043552,Clouds
135123.496,-0.0001848917454481125,-0.006913537625223398,0.0007401704788208008,0.0001481377985328436,0.0004489692801143974,0.0014353906735777855,0.032142848,57.043552,Clouds
135123.526,-0.00022815261036157608,-0.007599526084959507,-0.0028760433197021484,0.0016384145710617304,6.919892621226609e-05,-0.0008660335442982614,0.03083947,57.043552,Clouds
135123.556,-0.0026707127690315247,-0.00838552787899971,0.002052605152130127,-8.53314995765686e-05,0.0024211956188082695,0.001543402555398643,0.03009122,57.043552,Clouds
135123.585,-0.002251341938972473,-0.007839176803827286,-0.00025147199630737305,0.000661890022456646,0.0012300466187298298,-0.0007287960033863783,0.028471028,57.043552,Clouds
135123.615,-0.00013819057494401932,-0.006669194903224707,-0.0031198859214782715,0.0019413926638662815,0.0032317466102540493,0.00151416240260005,0.027172463,57.043552,Clouds
135123.645,-0.0015028677880764008,-0.006396106444299221,-2.2351741790771484e-05,-0.00198835926130414,0.0007509358110837638,0.0009970937389880419,0.04561768,57.043552,Clouds
135123.675,-0.002528110519051552,-0.008046693168580532,-2.2292137145996094e-05,-0.0020379358902573586,0.003225993597880006,0.0012077041901648045,0.1115241,57.043552,Clouds
135123.704,-0.001881290227174759,-0.008894121274352074,-0.00040400028228759766,0.002941319951787591,-0.0002891638141591102,0.002828896977007389,0.20197688,57.043552,Clouds
135123.734,0.00026610027998685837,-0.008889821358025074,-0.0016549229621887207,-0.0015236289473250508,0.0001627450983505696,0.00042703974759206176,0.19695938,57.043552,Clouds
135123.764,-0.0010110624134540558,-0.005348767153918743,-0.001685023307800293,0.0018187705427408218,0.00014652084792032838,-0.0025359108112752438,0.19453439,57.043552,Clouds
135123.794,-0.002470633015036583,-0.005973074119538069,-0.0007994174957275391,-0.0032787518575787544,-0.0005345144309103489,-0.00024972279788926244,0.17306277,57.043552,Clouds
135123.824,-0.002763054333627224,-0.007994070649147034,0.0021149516105651855,-0.0036261386703699827,-0.0008112983778119087,-0.00360066257417202,0.15939295,57.043552,Clouds
135123.854,-0.0004059094935655594,-0.006336245685815811,0.0002384781837463379,0.0007203326094895601,0.0012758014490827918,-0.0017430048901587725,0.14533946,57.043552,Clouds
135123.883,-0.00012482143938541412,-0.006363408640027046,0.0008640289306640625,-0.0028180342633277178,-0.0012305042473599315,0.0020771166309714317,0.1206726,57.043552,Clouds
135123.913,-0.002665657550096512,-0.006946736015379429,-0.0014398694038391113,0.0009689740836620331,-0.003676417050883174,-0.000660000485368073,0.10914478,57.043552,Clouds
135123.943,-0.0026645930483937263,-0.007592849433422089,0.0017035603523254395,-0.0005196819547563791,0.002462256234139204,0.00043881573947146535,0.09084207,57.043552,Clouds
135123.973,-0.0003195935860276222,-0.006510796025395393,-0.00031065940856933594,0.0017550599295645952,0.0022221875842660666,-0.0017513044876977801,0.083212495,57.043552,Clouds
135124.003,-9.168032556772232e-05,-0.00736366119235754,-0.0013179183006286621,0.0003704358823597431,0.0012948614312335849,-0.0011454808991402388,0.07491046,57.043552,Clouds
135124.033,-0.0026069898158311844,-0.008403326384723186,0.00025385618209838867,0.0009531823452562094,-0.0013363083126023412,0.001329626189544797,0.06600147,57.043552,Clouds
135124.063,-0.0024560634046792984,-0.007613698951900005,-0.0018666386604309082,-0.0019650093745440245,-0.002773648127913475,-0.0006970840040594339,0.061839923,57.043552,Clouds
135124.092,-0.00025800615549087524,-0.006688337307423353,-0.0008440017700195312,6.931670941412449e-05,-0.0027876689564436674,-0.0006441595614887774,0.055085298,57.043552,Clouds
135124.122,-0.0011670831590890884,-0.006696982774883509,0.001124262809753418,0.0024865989107638597,-0.0005383164389058948,-0.0012163029750809073,0.05462611,57.043552,Clouds
135124.152,-0.003406025469303131,-0.007100679446011782,-0.0007524490356445312,0.0007310288492590189,0.001347887679003179,0.0013112276792526245,0.05036336,57.043552,Clouds
135124.182,-0.0009987447410821915,-0.00636139465495944,0.0003764033317565918,0.0006527483928948641,0.0017418531933799386,0.0006841594004072249,0.04736069,57.043552,Clouds
135124.212,0.0007537892088294029,-0.006166947539895773,0.0002543926239013672,0.0003701820969581604,-0.0015084740007296205,0.0006645180401392281,0.044256642,57.043552,Clouds
135124.241,-0.001813884824514389,-0.006356160156428814,-0.0015153884887695312,0.0014016504865139723,-0.0011587650515139103,-0.0025835069827735424,0.03951491,57.043552,Clouds
135124.271,-0.0028029195964336395,-0.006626592483371496,-0.00030982494354248047,4.145270213484764e-05,-0.0013239701511338353,-0.0007989357109181583,0.03661242,57.043552,Clouds
135124.301,-0.0005713785067200661,-0.006052945740520954,-0.0007828474044799805,-0.0025478547904640436,-0.0014094554353505373,-0.00023729796521365643,0.036448855,57.043552,Clouds
135124.331,-0.000611327588558197,-0.006243512500077486,-0.0007822513580322266,0.005056959576904774,-0.0017741783522069454,0.0017963703721761703,0.03520607,57.043552,Clouds
135124.360,-0.002801310271024704,-0.0068583497777581215,-0.000843346118927002,-0.0012439280981197953,0.00028160258079878986,-0.0003791461349464953,0.034864396,57.043552,Clouds
135124.391,-0.002334977500140667,-0.006438690237700939,-0.003040909767150879,0.0015339900273829699,0.0004354340780992061,-0.0007600445533171296,0.034790937,57.043552,Clouds
135124.420,-0.0004303501918911934,-0.006552991457283497,-3.4928321838378906e-05,0.00011923699639737606,0.00016978150233626366,0.002093413844704628,0.040339634,57.043552,Clouds
135124.450,-0.002155127003788948,-0.005618233233690262,0.0006976723670959473,-0.0017801645444706082,-0.0027598326560109854,0.00025420854217372835,0.04006516,57.043552,Clouds
135124.480,-0.003162228502333164,-0.006927653681486845,0.0007134079933166504,-0.003340264083817601,-0.0003371307975612581,0.0004451720742508769,0.062311,57.043552,Clouds
135124.510,-0.0007034912705421448,-0.008119736798107624,-0.0016821622848510742,-6.387266330420971e-05,-0.0003771756892092526,-0.0020492365583777428,0.06202994,57.043552,Clouds
135124.540,-0.0003617452457547188,-0.006139643024653196,0.0004538893699645996,0.00039044697768986225,4.1900595533661544e-05,-0.00018877745606005192,0.061235856,57.043552,Clouds
135124.570,-0.001972740516066551,-0.007044341415166855,0.0006676912307739258,0.00129674281924963,0.0005274766590446234,-0.0016847066581249237,0.057433218,57.043552,Clouds
135124.600,-0.002705487422645092,-0.005820555612444878,-0.00043070316314697266,-0.0007933347951620817,-0.0016791886882856488,-0.00010096753248944879,0.05418911,57.043552,Clouds
135124.629,-0.0009790528565645218,-0.005858111660927534,-0.0010409951210021973,0.0013783152680844069,0.00013129814760759473,0.002128968480974436,0.048842683,57.043552,Clouds
135124.659,-0.0014040060341358185,-0.00606495700776577,-0.0002779960632324219,-0.0013628690503537655,0.0004531714948825538,-0.0020209727808833122,0.04610223,57.043552,Clouds
135124.689,-0.0024032890796661377,-0.006385526619851589,-0.0006896257400512695,0.0012902508024126291,-0.001185529283247888,-0.0009211652795784175,0.04422719,57.043552,Clouds
135124.719,-0.001764007844030857,-0.0064409528858959675,0.0007749795913696289,0.0004538248758763075,0.0006225818069651723,9.34173003770411e-05,0.040691573,57.043552,Clouds
135124.749,-0.0006334874778985977,-0.005797896534204483,0.0019804835319519043,-0.0012512223329395056,0.000592087279073894,0.0007180619286373258,0.03767312,57.043552,Clouds
135124.778,-0.0023162197321653366,-0.0064348941668868065,-0.0014220476150512695,-0.0008204302284866571,0.0009489909280091524,-0.0005042291013523936,0.031826913,57.043552,Clouds
135124.808,-0.0021376833319664,-0.0064007872715592384,-0.00046056509017944336,-0.0017317846650257707,0.0017707135993987322,0.0009440610301680863,0.030838547,57.043552,Clouds
135124.838,-0.0017859414219856262,-0.005874468944966793,0.0013552308082580566,-0.0008540342096239328,0.0020526922307908535,0.00023302776389755309,0.03264045,57.043552,Clouds
135124.868,-0.0021178051829338074,-0.006058559753000736,0.0012332797050476074,0.00013655517250299454,-0.000606872490607202,-0.0005093941581435502,0.031177372,57.043552,Clouds
135124.898,-0.0016479277983307838,-0.004722152836620808,-0.00033861398696899414,0.001918167807161808,0.002918761922046542,-0.0008271831320598722,0.029760793,57.043552,Clouds
135124.927,-0.00222686305642128,-0.00645546056330204,0.00027173757553100586,-0.001081547699868679,0.0004526140110101551,-9.29038506001234e-05,0.02692416,57.043552,Clouds
135124.957,-0.002391315996646881,-0.006554353050887585,0.00024127960205078125,-0.0037150534335523844,0.0009239189676009119,0.00021426455350592732,0.02582435,57.043552,Clouds
135124.987,-0.0012239385396242142,-0.006196268834173679,-0.0001856088638305664,-0.001751354313455522,-0.001373580889776349,-0.0006619129562750459,0.02566315,57.043552,Clouds
135125.017,-0.0002696933224797249,-0.005755904596298933,0.00025725364685058594,0.00016066408716142178,0.0005160766886547208,0.0004398490418680012,0.023828013,57.043552,Clouds
135125.047,-0.001319332979619503,-0.005584215745329857,0.0017527341842651367,-0.0010913106380030513,0.00292156171053648,0.0006110360263846815,0.02286134,57.043552,Clouds
135125.076,-0.003820539452135563,-0.00605151429772377,-0.00021564960479736328,0.0014309145044535398,0.0013671956257894635,-0.0013201788533478975,0.021007648,57.043552,Clouds
135125.106,-0.0011455053463578224,-0.00500995060428977,-0.0012381672859191895,0.0014802429359406233,0.0007781073800288141,0.0011915579671040177,0.020224184,57.043552,Clouds
135125.136,0.00019491743296384811,-0.005212577059864998,-0.0011768937110900879,-0.0003584285732358694,-0.0011089793406426907,-0.0014936868101358414,0.019882783,57.043552,Clouds
135125.166,-0.002706550993025303,-0.006101483944803476,0.0003642439842224121,0.0027309427969157696,0.0018748701550066471,0.0002982889418490231,0.035909455,57.043552,Clouds
135125.196,-0.0021326271817088127,-0.006712332833558321,-0.00026148557662963867,0.0009210652206093073,-0.00021583597117569298,0.0007128731813281775,0.054579426,57.043552,Clouds
135125.226,-0.0014812266454100609,-0.005530450958758593,-0.0021839141845703125,-0.00042584212496876717,-0.002705859486013651,-0.0009077281574718654,0.0654645,57.043552,Clouds
135125.255,-0.000817704014480114,-0.0056853159330785275,-0.0021685361862182617,0.00027967640198767185,0.0018504835898056626,-0.0017077061347663403,0.06342337,57.043552,Clouds
135125.285,-0.0021797893568873405,-0.005758007522672415,0.0021956562995910645,-0.0002872797194868326,0.0007616404327563941,-0.001374484971165657,0.059184127,57.043552,Clouds
135125.315,-0.003293672576546669,-0.0034249352756887674,0.002257108688354492,-0.002523459494113922,0.0010316458065062761,0.0006555182626470923,0.06197391,57.043552,Clouds
135125.345,-0.0017837444320321083,-0.006145060062408447,0.0018901824951171875,-8.67876224219799e-05,0.0025160089135169983,-0.0011287208180874586,0.059112024,57.043552,Clouds
135125.375,-0.0014453260228037834,-0.00581199349835515,-0.0002924203872680664,0.000538969412446022,-0.0004348639922682196,-0.0017798809567466378,0.052999195,57.043552,Clouds
135125.405,-0.0012042662128806114,-0.005946725606918335,-0.003313720226287842,-0.0019844267517328262,0.0005498753162100911,0.0015752491308376193,0.05009279,57.043552,Clouds
135125.434,-0.0024164682254195213,-0.005631631705909967,0.00011944770812988281,0.003730999305844307,0.0004292624071240425,-0.0013233193894848228,0.04629207,57.043552,Clouds
135125.464,-0.002922210842370987,-0.005857478827238083,-0.0012539029121398926,0.001820345874875784,-4.754315159516409e-05,0.0006817416870035231,0.041057,57.043552,Clouds
135125.495,-0.0006145071238279343,-0.006259781774133444,-0.0010089874267578125,-6.311153993010521e-05,-0.0025373129174113274,0.0007214855286292732,0.039601166,57.043552,Clouds
135125.524,-0.00042945146560668945,-0.0066788457334041595,0.0008829236030578613,0.00021767336875200272,-0.0004971925518475473,-0.00048643298214301467,0.03574116,57.043552,Clouds
135125.554,0.01905263215303421,-0.016335664317011833,0.001920461654663086,0.002934318268671632,-0.0010846996447071433,-0.0789145827293396,0.035107106,57.043552,Clouds
135125.584,-0.013308974914252758,-0.00014980319247115403,-0.0016958117485046387,5.007907748222351e-05,-0.0018823683494701982,-0.0734943300485611,0.03457465,57.043552,Clouds
135125.613,-0.0020832251757383347,-0.00421985425055027,0.0006389021873474121,-0.0012277028290554881,-0.0009321662364527583,-0.04083407297730446,0.03085278,57.043552,Clouds
135125.643,0.0016441773623228073,-0.011033858172595501,0.0017982125282287598,0.0016962068621069193,-0.0006530757527798414,-0.05909041315317154,0.029695895,57.043552,Clouds
135125.673,-0.0053315237164497375,-0.006790444254875183,-0.00042891502380371094,-0.0010943905217573047,-0.0013959035277366638,-0.044125255197286606,0.026920546,57.043552,Clouds
135125.703,-0.0026945993304252625,-0.005973187740892172,-0.0031908154487609863,0.0017586771864444017,-0.000752177438698709,-0.026641709730029106,0.02501507,57.043552,Clouds
135125.733,-0.00256327074021101,-0.0031076641753315926,0.0005775690078735352,0.00028223427943885326,0.0019530275603756309,-0.022087689489126205,0.023806524,57.043552,Clouds
135125.763,-0.007189596071839333,0.006816984619945288,-2.7418136596679688e-06,0.0002072756178677082,0.0011079143732786179,0.001429963856935501,0.040179785,57.043552,Clouds
135125.792,-0.001340317539870739,-0.005655504297465086,-0.0013306140899658203,1.4533055946230888e-05,0.0019218545639887452,0.001354065490886569,0.038934078,57.043552,Clouds
135125.822,-0.002856949344277382,-0.005731996614485979,-0.001223921775817871,-0.0018469574861228466,0.0008226960198953748,0.002231710823252797,0.036698405,57.043552,Clouds
135125.852,-0.0021343911066651344,-0.004812623839825392,0.0005311369895935059,-0.0008552195504307747,0.0013391169486567378,-0.0026594698429107666,0.038884234,57.043552,Clouds
135125.882,-0.002344321459531784,-0.005029619205743074,-0.0012087225914001465,0.001676417188718915,-1.9227663869969547e-05,-0.0028933347202837467,0.03713072,57.043552,Clouds
135125.912,-0.0009261099621653557,-0.004835924133658409,0.000805199146270752,0.0013908545952290297,9.70501423580572e-06,1.1565920431166887e-05,0.03504843,57.043552,Clouds
135125.942,-0.001581341028213501,-0.00507299043238163,-0.0007051825523376465,0.0009276936762034893,0.0010995386401191354,-0.0015986154321581125,0.03499129,57.043552,Clouds
135125.971,-0.002082938328385353,-0.005736528895795345,-0.0003389716148376465,-0.001957505475729704,-0.0002774519089143723,-0.0029104226268827915,0.031611234,57.043552,Clouds
135126.001,-0.0019060224294662476,-0.005472800228744745,0.00013399124145507812,-0.0027120390441268682,-1.9938153855036944e-05,-0.000799525179900229,0.029844021,57.043552,Clouds
135126.031,-0.001813284121453762,-0.005495710298418999,-0.00032335519790649414,-0.002391624031588435,0.0012082436587661505,0.0007741702720522881,0.027509129,57.043552,Clouds
135126.062,-0.0011121667921543121,-0.0051696994341909885,-0.0009036064147949219,0.0008410955779254436,0.002422484802082181,0.0027064024470746517,0.02370324,57.043552,Clouds
135126.090,-0.002073231153190136,-0.0054662409238517284,-0.0006444454193115234,-0.00165543460752815,-0.0005241326289251447,-0.0005083795404061675,0.02195612,57.043552,Clouds
135126.120,-0.0025339610874652863,-0.005645218770951033,-0.00021660327911376953,0.004947394132614136,0.0005831075832247734,0.00030286930268630385,0.028711056,57.043552,Clouds
135126.150,-0.0006353221833705902,-0.00455201743170619,0.0009891986846923828,9.484007023274899e-05,0.0032672800589352846,-0.00038070150185376406,0.026789417,57.043552,Clouds
135126.180,-0.0008193133398890495,-0.005565307103097439,-0.0007351040840148926,0.001664341427385807,0.00046228861901909113,0.0009251874289475381,0.026204722,57.043552,Clouds
135126.210,-0.0008930852636694908,-0.005932933185249567,0.000836789608001709,-0.0063225263729691505,-0.005953044630587101,0.004325492773205042,0.023758844,57.043552,Clouds
135126.240,-0.0015477975830435753,-0.0059676822274923325,0.00030297040939331055,-0.002660332014784217,0.0018329015001654625,0.0018720664083957672,0.023092745,57.043552,Clouds
135126.270,-0.0012813862413167953,-0.004312356002628803,-0.00032252073287963867,0.0011553640943020582,0.0013109936844557524,0.0016370316734537482,0.026692776,57.043552,Clouds
135126.300,-0.001100536435842514,-0.005418869201093912,-0.0007653236389160156,-0.0028314003720879555,0.0007064903620630503,-0.003713006852194667,0.033185102,57.043552,Clouds
135126.329,-0.001747993752360344,-0.0052358717657625675,0.0006080865859985352,-0.0017459093360230327,0.0015917591517791152,2.179568400606513e-05,0.03848651,57.043552,Clouds
135126.359,-0.002957715652883053,-0.004959022626280785,0.0004857778549194336,0.0011209610383957624,0.001917963265441358,-0.001700150198303163,0.03583633,57.043552,Clouds
135126.389,-0.0024896906688809395,-0.004919159691780806,0.0009436607360839844,0.0022387441713362932,0.0011337344767525792,-0.001411924371495843,0.035865866,57.043552,Clouds
135126.419,-0.000538412481546402,-0.004602011758834124,-0.0010097622871398926,-0.0004359227605164051,0.0013366510393097997,-9.019143180921674e-05,0.058198243,57.043552,Clouds
135126.449,-0.0010831747204065323,-0.005169185809791088,-0.0001704692840576172,0.0028904106002300978,-0.0006231539882719517,0.000812954967841506,0.056921232,57.043552,Clouds
135126.478,-0.001491800881922245,-0.00608245050534606,0.001386404037475586,-0.0017228659708052874,-0.0007392624975182116,0.00034146627876907587,0.055570256,57.043552,Clouds
135126.508,-0.0007389262318611145,-0.005192645359784365,-0.0002459883689880371,0.0013814140111207962,-0.00010552132880548015,-0.0003143503563478589,0.050940737,57.043552,Clouds
135126.538,-0.0004929415881633759,-0.005276412237435579,-0.0009020566940307617,-0.004443306475877762,0.0002737011236604303,-0.0007341913878917694,0.04943996,57.043552,Clouds
135126.568,-0.0017423313111066818,-0.005038349889218807,-0.00021541118621826172,-0.000600023427978158,0.002100142650306225,7.10676540620625e-05,0.044118248,57.043552,Clouds
135126.598,-0.0017809877172112465,-0.004477522801607847,-0.0009326934814453125,0.0022740454878658056,-0.0009270436130464077,0.003065901342779398,0.04188391,57.043552,Clouds
135126.628,-0.00269143283367157,-0.004512158688157797,-0.0023366808891296387,0.0025252788327634335,0.00037320953560993075,-0.0017503728158771992,0.040058803,57.043552,Clouds
135126.658,0.0001997780054807663,-0.004659099038690329,-0.00039845705032348633,0.003218776546418667,7.504731183871627e-05,0.0008586578769609332,0.036684416,57.043552,Clouds
135126.687,-0.0022682389244437218,-0.0056761205196380615,0.00031870603561401367,0.0007238499820232391,-0.0003745201393030584,0.00036622179322876036,0.034248516,57.043552,Clouds
135126.717,-0.002516656182706356,-0.005809742026031017,-0.0010241270065307617,0.0016725501045584679,0.0004948523128405213,-0.0002673932467587292,0.031924453,57.043552,Clouds
135126.746,-0.0010789614170789719,-0.00439437897875905,-0.0008107423782348633,0.0025912278797477484,-0.0005301060737110674,0.001775916200131178,0.03827122,57.043552,Clouds
135126.777,-0.0009282128885388374,-0.004360479768365622,-0.00039833784103393555,-0.0030202018097043037,-8.449242159258574e-05,0.000495237996801734,0.03512265,57.043552,Clouds
135126.807,-0.002829848788678646,-0.0052239783108234406,0.0006696581840515137,0.0017753168940544128,-0.0015465612523257732,-0.0009365187725052238,0.03124447,57.043552,Clouds
135126.837,-0.0022196657955646515,-0.0041567361913621426,-0.0001850724220275879,-0.002970737172290683,-0.0004327479691710323,-0.002557248342782259,0.030782003,57.043552,Clouds
135126.866,-0.0006245765835046768,-0.004163860343396664,0.00011998414993286133,0.0008933774661272764,-0.00036058537079952657,0.0007423951756209135,0.029305812,57.043552,Clouds
135126.896,-0.0024255476891994476,-0.004552250728011131,0.00037932395935058594,-0.001183039858005941,0.00010296588880009949,-0.0017943226266652346,0.027996654,57.043552,Clouds
135126.926,-0.0026167305186390877,-0.0045656380243599415,-0.0003374814987182617,-0.0007150543387979269,0.0023325374349951744,-0.0009190438431687653,0.027398234,57.043552,Clouds
135126.956,-0.000284791924059391,-0.004312288016080856,-0.0005666613578796387,0.0010133909527212381,0.002422523684799671,0.00018156380974687636,0.037240427,57.043552,Clouds
135126.986,-0.001702181063592434,-0.004783245734870434,-0.00010907649993896484,0.00011170841753482819,-0.0014509465545415878,-0.003035572823137045,0.041078974,57.043552,Clouds
135127.016,-0.0020979568362236023,-0.004914623219519854,-0.0004905462265014648,0.00023172935470938683,-0.0009211943834088743,0.0004346256610006094,0.070535846,57.043552,Clouds
135127.045,-0.001849927008152008,-0.005058843642473221,-0.0013145208358764648,-0.0007144738920032978,-0.001021177158690989,-0.0002579796710051596,0.06659562,57.043552,Clouds
135127.075,-0.00018830504268407822,-0.004223511554300785,-0.00012433528900146484,-0.00021584727801382542,-0.0012135133147239685,0.0006289085140451789,0.06402188,57.043552,Clouds
135127.105,-0.0016612941399216652,-0.004844800569117069,0.0007154345512390137,0.0005092027131468058,-0.0002545153256505728,-0.0013422784395515919,0.058420748,57.043552,Clouds
135127.134,-0.0019755512475967407,-0.005788400303572416,-4.744529724121094e-05,-0.0009951042011380196,-0.0007273908122442663,-0.0002616161946207285,0.05434763,57.043552,Clouds
135127.165,-0.0005612215027213097,-0.0036984048783779144,-0.0008258819580078125,-0.00044687348417937756,-0.0004974867915734649,-0.0006931020179763436,0.048793115,57.043552,Clouds
135127.194,-0.0004924498498439789,-0.0037099728360772133,-0.0011006593704223633,-0.0017766605596989393,-0.0007666480378247797,-0.0006763730198144913,0.046901558,57.043552,Clouds
135127.224,-0.002575615420937538,-0.005155741702765226,-0.00016957521438598633,-0.0004850020632147789,-0.0006754234782420099,0.0009247537236660719,0.043232135,57.043552,Clouds
135127.254,-0.002385791391134262,-0.0054417261853814125,-0.0009323954582214355,-0.0007762655150145292,0.001073231571353972,0.0026177747640758753,0.03881997,57.043552,Clouds
135127.283,-0.00028625596314668655,-0.0029583717696368694,0.00037980079650878906,-0.001090698642656207,0.0013850050745531917,-0.0014308847021311522,0.03843683,57.043552,Clouds
135127.314,-0.0012961672618985176,-0.003960439469665289,-0.00013905763626098633,-0.0028824324253946543,-0.00014551792992278934,-0.0003973825369030237,0.034910627,57.043552,Clouds
135127.343,-0.002136475406587124,-0.005648939870297909,9.000301361083984e-05,0.0016391610261052847,0.00013862259220331907,-0.0008666095091030002,0.033818886,57.043552,Clouds
135127.373,-0.0006081834435462952,-0.004835708066821098,-1.5497207641601562e-06,0.001723461551591754,0.0008475674549117684,-0.0019838446751236916,0.03301471,57.043552,Clouds
135127.403,-0.0005089826881885529,-0.004601425491273403,-3.1948089599609375e-05,0.0018100100569427013,0.0009821528801694512,-0.0013803259935230017,0.028663991,57.043552,Clouds
135127.433,-0.0011505726724863052,-0.00500418059527874,0.00036472082138061523,0.0015151172410696745,0.0015216437168419361,0.0009656995534896851,0.026977334,57.043552,Clouds
135127.463,-0.002139093354344368,-0.005282599478960037,-0.0003676414489746094,-0.0001627479214221239,-0.0002119943092111498,0.0019438404124230146,0.025122428,57.043552,Clouds
135127.493,0.00012670829892158508,-0.003980113193392754,-3.159046173095703e-05,7.481197826564312e-05,-0.0017818240448832512,0.0006882353918626904,0.023854157,57.043552,Clouds
135127.522,-0.00136664230376482,-0.004030847921967506,-0.00018417835235595703,-0.0005277562886476517,0.0018734523328021169,0.0006099342717789114,0.022562878,57.043552,Clouds
135127.552,-0.002105448395013809,-0.004402911756187677,0.0004105567932128906,-0.001388092990964651,0.0017985135782510042,0.0008694640127941966,0.020603081,57.043552,Clouds
135127.582,-0.0022019613534212112,-0.004762319847941399,0.0006696581840515137,-0.0016667944146320224,0.003390547586604953,-0.0006719560478813946,0.019517953,57.043552,Clouds
135127.612,-0.0005612587556242943,-0.003503661835566163,-7.808208465576172e-05,0.002659556455910206,-2.5659199309302494e-05,0.0021143550984561443,0.026717912,57.043552,Clouds
135127.642,-0.0014185477048158646,-0.004489836283028126,0.00012063980102539062,0.00034652487374842167,1.1969859770033509e-05,0.0017372106667608023,0.025106821,57.043552,Clouds
135127.671,-0.0025289999321103096,-0.005656464025378227,0.0016315579414367676,0.0022500157356262207,-0.0016027188394218683,-0.0039174556732177734,0.024805218,57.043552,Clouds
135127.701,-0.0008316319435834885,-0.003535662777721882,-0.0015577077865600586,0.0016008729580789804,0.0010352869285270572,0.0015853755176067352,0.024332907,57.043552,Clouds
135127.731,-0.000608537346124649,-0.002689959015697241,-0.0029611587524414062,-0.0008293509017676115,0.0008160274592228234,0.002202566945925355,0.023148313,57.043552,Clouds
135127.761,-0.0027041127905249596,-0.0038014166057109833,-0.003388524055480957,-0.0012052461970597506,-7.018855103524402e-05,-0.0011112389620393515,0.049690865,57.043552,Clouds
135127.791,-0.0010985396802425385,-0.005667764227837324,0.0003037452697753906,-0.0013593952171504498,0.0006509134545922279,0.00012324017006903887,0.047525894,57.043552,Clouds
135127.821,-0.0017394637688994408,-0.004553789272904396,0.0016772150993347168,-0.001832921989262104,0.00020214907999616116,-0.001006407430395484,0.04537851,57.043552,Clouds
135127.850,-0.002055421471595764,-0.0038041360676288605,-0.001466214656829834,0.0027890163473784924,0.0012367890449240804,0.0010376148857176304,0.0638197,57.043552,Clouds
135127.880,-0.0011604372411966324,-0.004342337604612112,-0.0013902783393859863,0.0008708646055310965,0.0011489682365208864,-0.00018134532729163766,0.05839428,57.043552,Clouds
135127.910,-0.00041736289858818054,-0.003972268663346767,0.0007766485214233398,-0.0007770655211061239,0.0004929624847136438,0.0019300830317661166,0.05243325,57.043552,Clouds
135127.940,-0.0010112263262271881,-0.0035056746564805508,-0.000611424446105957,0.0015598372556269169,0.00041878357296809554,0.00025355233810842037,0.04839584,57.043552,Clouds
135127.970,-0.002109488472342491,-0.004700134973973036,-0.0003522634506225586,-0.003078907262533903,0.001419300795532763,-0.002493012696504593,0.04688842,57.043552,Clouds
135128.000,-0.002243402414023876,-0.00485557597130537,0.0011882781982421875,-6.33755698800087e-05,0.0016152096213772893,0.00018096313579007983,0.07098847,57.043552,Clouds
135128.029,0.0003055073320865631,-0.0030151009559631348,-0.0006127357482910156,0.0011306214146316051,-0.00028643396217375994,0.00011315103620290756,0.06593556,57.043552,Clouds
135128.059,-0.0015890588983893394,-0.004902740009129047,5.882978439331055e-05,-0.000882699154317379,-0.00033988378709182143,-0.0003066837089136243,0.063981704,57.043552,Clouds
135128.089,-0.001813732087612152,-0.004996863659471273,-0.0009636878967285156,-0.000531134195625782,0.0013125677360221744,-0.0011090855114161968,0.058879852,57.043552,Clouds
135128.119,-0.0018352260813117027,-0.0036192303523421288,-0.0008264780044555664,2.6641180738806725e-05,-0.0010259260889142752,0.0008166452753357589,0.054028347,57.043552,Clouds
135128.148,-0.0006204945966601372,-0.0028806612826883793,-0.0007194876670837402,-0.002189869526773691,-0.0014983182772994041,0.0011551437200978398,0.048407197,57.043552,Clouds
135128.178,-0.0022350242361426353,-0.004295415244996548,-6.35385513305664e-05,0.0003007391933351755,0.0026221568696200848,0.0006090982933528721,0.048489343,57.043552,Clouds
135128.208,-0.0027870135381817818,-0.004613964818418026,0.00022608041763305664,-0.00023585720919072628,0.0022866004146635532,-0.00020150851923972368,0.069649145,57.043552,Clouds
135128.238,-0.0013775061815977097,-0.0038018773775547743,0.000577092170715332,-0.0005761999636888504,-0.00147019955329597,-4.1338789742439985e-05,0.09593635,57.043552,Clouds
135128.268,-0.002208481542766094,-0.004553672857582569,-4.839897155761719e-05,-0.002183671109378338,-0.0006242304807528853,0.00040614482713863254,0.21998474,57.043552,Clouds
135128.298,-0.0015254681929945946,-0.003301888005807996,0.000913083553314209,-0.0005441086832433939,-0.001037950161844492,0.00026077497750520706,0.19713828,57.043552,Clouds
135128.328,-0.0005992390215396881,-0.004738922696560621,-0.0016807913780212402,0.00013377610594034195,-0.00018222269136458635,-0.003071232233196497,0.1900899,57.043552,Clouds
135128.358,-0.0018153619021177292,-0.004336604382842779,0.0004247426986694336,-0.0004848637618124485,-0.0017929135356098413,0.003140065586194396,0.1848422,57.043552,Clouds
135128.388,-0.001722855493426323,-0.004123252350836992,0.0010350942611694336,0.00010900408960878849,0.000980511074885726,-0.0007887445972301066,0.16430007,57.043552,Clouds
135128.417,-0.0008415617048740387,-0.004290828015655279,-0.0004906654357910156,-0.0014723114436492324,-0.00047832776908762753,-0.0016686496092006564,0.15327491,57.043552,Clouds
135128.447,-0.0013102628290653229,-0.004741798620671034,-0.00015491247177124023,0.003766224719583988,-0.001662995433434844,0.0012403185246512294,0.13262998,57.043552,Clouds
135128.477,-0.0011093281209468842,-0.004605955444276333,0.0010049939155578613,0.0012799000833183527,-0.001635999302379787,0.0016835294663906097,0.12322018,57.043552,Clouds
135128.507,-8.881092071533203e-05,-0.0032900942023843527,-0.0003070831298828125,-0.004462121054530144,-0.002170409308746457,-0.00029262335738167167,0.113175206,57.043552,Clouds
135128.536,-0.0028111999854445457,-0.004886862821877003,-7.826089859008789e-05,0.0016846132930368185,0.0013061418430879712,0.0003155367448925972,0.09889431,57.043552,Clouds
135128.566,-0.001763402484357357,-0.005131092853844166,-0.00026172399520874023,-0.002400904893875122,-0.001589766819961369,-0.0017734249122440815,0.09207869,57.043552,Clouds
135128.596,-0.0010039545595645905,-0.0038207571487873793,0.0006537437438964844,0.0017401839140802622,0.00026002118829637766,-0.0003195057506673038,0.08171042,57.043552,Clouds
135128.626,-0.001533854752779007,-0.0036284641828387976,-0.0008570551872253418,-0.0009422225411981344,0.002525679301470518,0.0011434507323428988,0.07529757,57.043552,Clouds
135128.656,-0.0018641026690602303,-0.004638792481273413,-2.9802322387695312e-06,-0.0022581806406378746,-0.0014288356760516763,0.0011121939169242978,0.0692819,57.043552,Clouds
135128.686,-0.0016156677156686783,-0.004018822219222784,-0.0003541111946105957,0.00016018562018871307,-0.0007078967755660415,-0.0007211334886960685,0.059395447,57.043552,Clouds
135128.715,-0.001027846708893776,-0.0036778077483177185,0.0007291436195373535,0.0014829719439148903,0.0010866825468838215,0.0004890434211120009,0.055662327,57.043552,Clouds
135128.745,-0.0017547346651554108,-0.003831995651125908,0.000867009162902832,-0.0012628802796825767,-0.0006039325380697846,0.0001808130764402449,0.048508298,57.043552,Clouds
135128.775,-0.002126871608197689,-0.004399584606289864,-0.0012999176979064941,8.785934187471867e-05,0.00018308927246835083,0.0012227899860590696,0.045341853,57.043552,Clouds
135128.805,-0.0016498519107699394,-0.003250459674745798,-0.0009639263153076172,0.0006353780627250671,-0.0003066468925680965,0.0005622495664283633,0.047670096,57.043552,Clouds
135128.835,-0.0015431065112352371,-0.0036064726300537586,0.0008676052093505859,-0.0020553674548864365,-0.0002144333702744916,-0.0014052726328372955,0.122336484,57.043552,Clouds
135128.865,-0.001992860808968544,-0.004020330496132374,0.0003491640090942383,-0.0036151069216430187,0.0016416553407907486,-0.0007588354637846351,0.116224304,57.043552,Clouds
135128.894,-0.0008371807634830475,-0.0038343179039657116,-0.0008258223533630371,-0.002224984811618924,-0.0005620373995043337,-0.0016026042867451906,0.0999147,57.043552,Clouds
135128.924,-0.0005146460607647896,-0.004042625892907381,-0.0003981590270996094,-0.0017981653800234199,-3.0763549148105085e-06,-0.0017506923759356141,0.094945304,57.043552,Clouds
135128.954,-0.0022620810195803642,-0.004658395424485207,-0.0008713006973266602,-0.003222038969397545,0.002412053756415844,0.0028716237284243107,0.08614709,57.043552,Clouds
135128.984,-0.00046251341700553894,-0.0038829855620861053,0.00012034177780151367,-0.0011551041388884187,0.0008818978676572442,-0.0007974088657647371,0.07324913,57.043552,Clouds
135129.014,-0.0005317945033311844,-0.003326249308884144,0.0005169510841369629,0.00038118520751595497,0.001368596451357007,-0.0002465160214342177,0.06642053,57.043552,Clouds
135129.043,-0.0015496248379349709,-0.003271963447332382,-0.0007041096687316895,-0.0009828933980315924,0.0018852733774110675,-0.0027785443235188723,0.05585913,57.043552,Clouds
135129.073,-0.0012719258666038513,-0.0034660345409065485,0.0006386637687683105,0.0013510349672287703,-0.0006465176120400429,0.001447898568585515,0.051024072,57.043552,Clouds
135129.103,-0.0015645185485482216,-0.004406066611409187,-0.0002919435501098633,0.0007336819544434547,-0.0014066582079976797,0.0005502779968082905,0.047567293,57.043552,Clouds
135129.133,-0.0006017992272973061,-0.003922552336007357,0.0009286999702453613,0.0015992228873074055,0.0015253731980919838,-0.0009760183747857809,0.041721966,57.043552,Clouds
135129.163,-0.002454575151205063,-0.0037469391245394945,0.0005471110343933105,0.00239669531583786,0.00029857794288545847,0.0011720003094524145,0.045456786,57.043552,Clouds
135129.193,-0.001651417464017868,-0.0038967961445450783,-0.0008103847503662109,0.00022592884488403797,-0.0010564719559624791,0.000765277654863894,0.041541334,57.043552,Clouds
135129.223,-0.0010081781074404716,-0.003501696977764368,-0.00020003318786621094,0.002414669143036008,0.0012122240150347352,0.0008908766903914511,0.03839326,57.043552,Clouds
135129.252,-0.0007206443697214127,-0.0039055210072547197,-0.0005512237548828125,-0.002277154242619872,0.00017121997370850295,-0.00032405974343419075,0.035555586,57.043552,Clouds
135129.282,-0.0014411136507987976,-0.0035705724731087685,-0.00018483400344848633,0.0024087512865662575,-0.0008235304267145693,-0.0005963535513728857,0.05346711,57.043552,Clouds
135129.312,-0.001099209301173687,-0.0034288386814296246,-0.0007493495941162109,0.001750691095367074,0.0012853695079684258,0.0031949342228472233,0.0517679,57.043552,Clouds
135129.341,-0.002226267009973526,-0.0036850925534963608,-0.002427816390991211,0.00161006860435009,0.00019428043742664158,-0.0008513579959981143,0.049121127,57.043552,Clouds
135129.372,-0.0009306725114583969,-0.003946798853576183,0.00025790929794311523,0.001122410874813795,0.0019055412849411368,8.502270793542266e-05,0.04658678,57.043552,Clouds
135129.401,-0.0003017401322722435,-0.004792755004018545,0.001112222671508789,0.0026517973747104406,0.0005556287942454219,-0.0003719784435816109,0.042698413,57.043552,Clouds
135129.431,-0.0023391051217913628,-0.0036820759996771812,-0.00032204389572143555,-0.00200292537920177,0.0006814671214669943,0.0009588821558281779,0.037995856,57.043552,Clouds
135129.461,-0.0015197647735476494,-0.0033245054073631763,-0.0003523826599121094,-0.0010530222207307816,0.0015064622275531292,0.00046988704707473516,0.03573762,57.043552,Clouds
135129.491,-0.0013522552326321602,-0.0038074911572039127,0.0007614493370056152,0.0017609032802283764,-0.00016414199490100145,0.00017984496662393212,0.033266507,57.043552,Clouds
135129.521,-0.0012052692472934723,-0.00413869833573699,0.001219332218170166,0.002431027591228485,0.001097794040106237,-0.0007513192831538618,0.032171164,57.043552,Clouds
135129.550,-0.0013399925082921982,-0.003758939914405346,-0.000413358211517334,0.0031315216328948736,-0.0017994914669543505,0.0023684187326580286,0.030872203,57.043552,Clouds
135129.580,-0.0006420724093914032,-0.002527267672121525,-0.0016797184944152832,0.0006035205442458391,-8.193639223463833e-05,-0.00185228674672544,0.029116504,57.043552,Clouds
135129.610,-0.0010845186188817024,-0.004282383248209953,-0.0005045533180236816,-0.00031911302357912064,0.003343030111864209,-0.0011178625281900167,0.02900212,57.043552,Clouds
135129.640,-0.0023778071627020836,-0.004988539032638073,0.0009145736694335938,0.0005173743702471256,-0.00206928513944149,-0.0018373201601207256,0.027903432,57.043552,Clouds
135129.670,-0.001325884833931923,-0.003962931223213673,-0.00044333934783935547,-0.002813555533066392,6.412088987417519e-05,0.00013738562120124698,0.027232315,57.043552,Clouds
135129.700,-0.0005490044131875038,-0.003591925138607621,-0.000962376594543457,0.00044463761150836945,0.0006067738868296146,0.000714103109203279,0.027063852,57.043552,Clouds
135129.729,-0.0019268179312348366,-0.0033612034749239683,0.0005484223365783691,-0.0007436692249029875,0.00019116231123916805,0.00048753840383142233,0.034945767,57.043552,Clouds
135129.759,-0.0021575912833213806,-0.003536808770149946,7.510185241699219e-05,0.0030751272570341825,-0.001372510683722794,0.002008012728765607,0.033847935,57.043552,Clouds
135129.789,-0.0009849602356553078,-0.0032574632205069065,7.480382919311523e-05,0.001327355159446597,-0.0019171633757650852,0.002218480221927166,0.06737932,57.043552,Clouds
135129.819,-0.0014233263209462166,-0.003371809609234333,0.0003802180290222168,-0.0009062378667294979,-0.0006879993015900254,0.0009025540202856064,0.06322364,57.043552,Clouds
135129.849,-0.001425575464963913,-0.0038799154572188854,-0.0012062788009643555,-0.0033481281716376543,-0.002111062640324235,-0.0010209426982328296,0.05872213,57.043552,Clouds
135129.879,-0.0016741445288062096,-0.0032412202563136816,-0.0011752843856811523,-0.003519951133057475,0.00016036549641285092,0.0008178335847333074,0.050847292,57.043552,Clouds
135129.908,-0.0013972492888569832,-0.0038171724881976843,3.0159950256347656e-05,0.000581398606300354,-0.002564502414315939,0.0007042962242849171,0.047027312,57.043552,Clouds
135129.938,-0.0006962204352021217,-0.0034781666472554207,0.0005792379379272461,0.0011815440375357866,0.0022314933594316244,0.0009964655619114637,0.04146833,57.043552,Clouds
135129.968,-0.0021155662834644318,-0.003196179401129484,-0.0007482767105102539,-0.000496388878673315,1.4334480511024594e-05,0.0003812048817053437,0.038594015,57.043552,Clouds
135129.998,-0.0019667772576212883,-0.0035279339645057917,-3.0934810638427734e-05,-0.0007790399249643087,-0.0005706374649889767,-0.003603434655815363,0.035978872,57.043552,Clouds
135130.028,-0.0006482265889644623,-0.003427780233323574,6.0498714447021484e-05,-0.0024368802551180124,-0.00020790850976482034,-0.003968997858464718,0.03202535,57.043552,Clouds
135130.058,-0.0015881741419434547,-0.003328748047351837,-8.940696716308594e-07,-0.0008321891073137522,0.0004424304352141917,-0.00013928924454376101,0.080334894,57.043552,Clouds
135130.087,-0.0014837170019745827,-0.0035926748532801867,-0.00015372037887573242,0.0012444858439266682,0.00024410824698861688,-0.0006913772667758167,0.11127641,57.043552,Clouds
135130.117,-0.0012890519574284554,-0.003280614037066698,4.458427429199219e-05,0.0010858478490263224,0.0003200741484761238,0.0015598153695464134,0.11056081,57.043552,Clouds
135130.147,-0.0006935577839612961,-0.004154819063842297,-0.00035196542739868164,0.0011017865035682917,0.0007493624580092728,8.813018212094903e-05,0.10456017,57.043552,Clouds
135130.177,-0.0024739671498537064,-0.0029958593659102917,-1.5914440155029297e-05,-4.2743515223264694e-05,0.0002120077406289056,0.0005063808057457209,0.08768111,57.043552,Clouds
135130.207,-0.00041228439658880234,-0.004142363555729389,-0.00035184621810913086,-0.0011383560486137867,0.0005735776503570378,-0.0013147429563105106,0.08273499,57.043552,Clouds
135130.237,-0.0005185902118682861,-0.004344489425420761,-4.6193599700927734e-05,-0.000922708073630929,0.0009468398639000952,-0.00014017120702192187,0.07164348,57.043552,Clouds
135130.266,-0.002007194794714451,-0.003121758345514536,0.00015246868133544922,-0.0008679144084453583,0.0014800869394093752,5.069863982498646e-05,0.0656515,57.043552,Clouds
135130.296,-0.0013044169172644615,-0.003354341723024845,-0.0009003877639770508,0.0027266675606369972,-0.0003018649003934115,0.00020759250037372112,0.06034792,57.043552,Clouds
135130.326,-0.0010515572503209114,-0.0034453817643225193,0.0005796551704406738,-0.0022139977663755417,-0.0011703158961609006,-0.0003356302040629089,0.15997821,57.043552,Clouds
135130.356,-0.0018919119611382484,-0.0040790303610265255,-0.0012974143028259277,-0.0011787721887230873,0.000460015085991472,4.07004845328629e-05,0.15790473,57.043552,Clouds
135130.386,-0.0007629478350281715,-0.003406740725040436,0.0011132359504699707,0.0009728108998388052,-0.00011398839706089348,-0.0003234431496821344,0.14024764,57.043552,Clouds
135130.416,-0.0008210660889744759,-0.00375117058865726,-0.00032085180282592773,-0.0010874078143388033,0.0013068836415186524,-0.0020179185084998608,0.12984298,57.043552,Clouds
135130.445,9.872019290924072e-06,-0.003990571014583111,-0.0014043450355529785,-0.002229142701253295,0.000398005242459476,-0.001433398574590683,0.12608668,57.043552,Clouds
135130.475,-0.0024249665439128876,-0.002713473979383707,-0.002594470977783203,-0.0018072323873639107,-0.00039932774961926043,0.0004325040499679744,0.114196636,57.043552,Clouds
135130.505,-0.0019594375044107437,-0.003289871383458376,-0.001114487648010254,-0.0005233185365796089,0.0015182499773800373,-0.0016654941719025373,0.103945985,57.043552,Clouds
135130.535,-0.0003049299120903015,-0.0031480921898037195,0.0006553530693054199,-0.0016413986450061202,0.00048678560415282845,-0.001269148662686348,0.08945414,57.043552,Clouds
135130.565,-0.0012555159628391266,-0.004456859081983566,-0.00021451711654663086,0.0003765744622796774,0.00163923145737499,-0.0005802084924653172,0.0874404,57.043552,Clouds
135130.594,-0.0018422408029437065,-0.0030514101963490248,1.4483928680419922e-05,0.0006539924070239067,-0.0005679831956513226,0.0014450557064265013,0.08730097,57.043552,Clouds
135130.624,-0.0012148534879088402,-0.0034015425480902195,0.00030434131622314453,0.0018796613439917564,0.0025672747287899256,0.0018701725639402866,0.077620536,57.043552,Clouds
135130.654,-0.00038697849959135056,-0.0028977268375456333,0.0007621049880981445,0.0016832773108035326,-0.0024088427890092134,-0.002018899656832218,0.07435334,57.043552,Clouds
135130.684,-0.0006545912474393845,-0.004470119718462229,-0.0008707046508789062,-0.003562589641660452,0.002283880952745676,-0.0006812542560510337,0.068198875,57.043552,Clouds
135130.714,-0.0014517446979880333,-0.003961717244237661,0.0008843541145324707,-0.0007914646994322538,-0.0017933284398168325,0.001147562637925148,0.066505946,57.043552,Clouds
135130.744,-0.0013130661100149155,-0.0025524741504341364,0.0004725456237792969,0.000498221255838871,0.00018326748977415264,-0.0009855793323367834,0.07272652,57.043552,Clouds
135130.774,-0.0011852104216814041,-0.0031143047381192446,0.0007315874099731445,-5.4230447858572006e-05,0.0011593487579375505,-6.0768157709389925e-05,0.07869977,57.043552,Clouds
135130.803,-0.0011890800669789314,-0.0030806686263531446,-0.00026029348373413086,0.0014693036209791899,0.00026836179313249886,0.0007252683863043785,0.07541896,57.043552,Clouds
135130.833,-0.0014242324978113174,-0.003802940482273698,-0.00045877695083618164,0.0020664625335484743,0.0005314267473295331,0.0008228663355112076,0.06851823,57.043552,Clouds
135130.863,-0.0009957635775208473,-0.0025387003552168608,-9.292364120483398e-05,-0.0021356232464313507,0.0013054339215159416,-0.00029026262927800417,0.06581956,57.043552,Clouds
135130.893,-0.0011342819780111313,-0.0037375325337052345,-0.0011913776397705078,-0.0025899431202560663,-0.002162434859201312,0.000821634370367974,0.06269763,57.043552,Clouds
135130.923,-0.002041677013039589,-0.00360170379281044,0.0013114213943481445,-0.0010587137658149004,0.002318090293556452,0.00021073551033623517,0.07807384,57.043552,Clouds
135130.952,-0.0018849000334739685,-0.0029941892717033625,0.0006098151206970215,-0.002627183683216572,-0.00035709163057617843,-0.0007806136854924262,0.07491844,57.043552,Clouds
135130.982,-0.0015897881239652634,-0.002848178381100297,-0.0006874203681945801,0.0027662022039294243,-0.0015756604261696339,0.0003791946801356971,0.06955174,57.043552,Clouds
135131.012,-0.0008561639115214348,-0.004346839152276516,-0.0007787346839904785,-0.00018155970610678196,0.0013066899264231324,-0.0002219586167484522,0.06583038,57.043552,Clouds
135131.042,-0.0024789972230792046,-0.0027098667342215776,0.00044167041778564453,0.002225416712462902,-0.0011372041190043092,0.0010896730236709118,0.0615546,57.043552,Clouds
135131.072,-0.0011984379962086678,-0.003419895889237523,6.031990051269531e-05,0.0014258953742682934,-0.002146397950127721,-0.00024282594677060843,0.056213822,57.043552,Clouds
135131.101,-0.0009824149310588837,-0.004538694396615028,-0.0003057122230529785,0.00019043218344449997,-0.001299156341701746,-0.00044819735921919346,0.052418556,57.043552,Clouds
135131.131,-0.001269213855266571,-0.0031350459903478622,0.0014183521270751953,0.0010006669908761978,-0.0004416032461449504,0.0011949677718803287,0.046878908,57.043552,Clouds
135131.161,-0.0005226787179708481,-0.002679874189198017,0.0005945563316345215,-0.0034585087560117245,0.0014350542332977057,0.0013548873830586672,0.04426681,57.043552,Clouds
135131.191,-0.0013375841081142426,-0.003051352221518755,-0.0001837015151977539,0.000407953979447484,0.0004854011640418321,0.0003873415698762983,0.04150436,57.043552,Clouds
135131.221,-0.0034038666635751724,-0.00482516922056675,0.0008080005645751953,0.00237789424136281,-0.0026912030298262835,-5.825230618938804e-05,0.038818944,57.043552,Clouds
135131.251,-0.001065126620233059,-0.0037295527290552855,-0.0005498528480529785,-0.0004966147243976593,0.002406477462500334,0.001976097235456109,0.042220704,57.043552,Clouds
135131.280,3.001280128955841e-05,-0.0019766315817832947,-0.0015268921852111816,0.0005224468186497688,0.003070126287639141,2.125126775354147e-05,0.041396774,57.043552,Clouds
135131.310,-0.0016662729904055595,-0.002986050210893154,0.0010828375816345215,-0.001101991394534707,0.00016135198529809713,0.0008819070644676685,0.038284443,57.043552,Clouds
135131.340,-0.002169925719499588,-0.004425577353686094,-0.001587212085723877,-0.0026051104068756104,0.000486945325974375,4.967075074091554e-05,0.038357455,57.043552,Clouds
135131.370,-0.00047307834029197693,-0.0027610238175839186,6.0558319091796875e-05,-0.0018469356000423431,-0.00019413951667957008,-0.0005967684555798769,0.03462879,57.043552,Clouds
135131.400,-0.00025662872940301895,-0.003247892716899514,-0.0005040764808654785,-0.002016310580074787,0.0011908571468666196,0.00028934283182024956,0.039281115,57.043552,Clouds
135131.430,-0.001990019343793392,-0.0031985174864530563,-7.718801498413086e-05,0.0013573274482041597,0.001102017005905509,0.0007786588976159692,0.036985636,57.043552,Clouds
135131.459,-0.00024103838950395584,-0.0034575515892356634,-0.0005655884742736816,0.00047854939475655556,-0.0002866475551854819,0.0004742239252664149,0.03225752,57.043552,Clouds
135131.489,-0.0006375964730978012,-0.003323649987578392,-0.00012290477752685547,0.0014382896479219198,-0.00038959417724981904,-0.0006363806314766407,0.030187435,57.043552,Clouds
135131.519,-0.001740836538374424,-0.0036054139491170645,-0.0009626150131225586,-0.0011621009325608611,0.0008680767496116459,-0.0007753217942081392,0.029658709,57.043552,Clouds
135131.549,-0.001997159793972969,-0.004076746292412281,0.00022774934768676758,-0.0032882648520171642,-0.000778860179707408,-0.0026568041648715734,0.029267361,57.043552,Clouds
135131.579,-0.0011302335187792778,-0.003342222422361374,-0.00018364191055297852,-0.0019717756658792496,-0.0015300714876502752,-0.00020075280917808414,0.027993364,57.043552,Clouds
135131.609,-0.0005618520081043243,-0.0025769672356545925,0.00045752525329589844,-0.0016371016390621662,0.0009919734438881278,-0.002803859068080783,0.029697044,57.043552,Clouds
135131.638,-0.0017131427302956581,-0.00427576620131731,-0.0007480382919311523,0.0005207299254834652,-0.001379394088871777,0.00012231443542987108,0.027565692,57.043552,Clouds
135131.668,-0.003548680804669857,-0.004161856137216091,0.0007322430610656738,0.0017437359783798456,-0.0011483852285891771,0.0038127051666378975,0.024597222,57.043552,Clouds
135131.698,0.0006112242117524147,-0.0035374939907342196,0.0003051161766052246,-0.003475041361525655,-0.0005551313515752554,7.848720997571945e-06,0.02316596,57.043552,Clouds
135131.728,0.0013794712722301483,-0.0019285711459815502,0.0009613037109375,0.001222912222146988,-7.944532262627035e-05,0.0008963288273662329,0.022581553,57.043552,Clouds
135131.758,-0.003312632441520691,-0.0039029326289892197,-0.0005034208297729492,-0.0007292309310287237,-0.0016358703142032027,-0.0009242223459295928,0.02818125,57.043552,Clouds
135131.788,-0.0023460080847144127,-0.0034853420220315456,-0.0005035996437072754,-0.0014265321660786867,0.0014288476668298244,-0.0013203758280724287,0.027865123,57.043552,Clouds
135131.817,0.000338173471391201,-0.001649630255997181,0.0009759664535522461,0.002869929652661085,0.0009859960991889238,-0.0020734635181725025,0.026204923,57.043552,Clouds
135131.847,-0.0006723459810018539,-0.0032886990811675787,-0.0003668665885925293,0.0018011496867984533,0.0002842201211024076,-0.00019275140948593616,0.025531614,57.043552,Clouds
135131.877,-0.0032962942495942116,-0.004077456891536713,0.0003806948661804199,0.004506038036197424,-0.0005637961439788342,0.0010836217552423477,0.07459374,57.043552,Clouds
135131.907,-0.0009697647765278816,-0.002940182341262698,-0.0003821253776550293,-0.001955335959792137,0.0008851997554302216,-0.001433199504390359,0.064521514,57.043552,Clouds
135131.937,0.0007810154929757118,-0.0018761123064905405,0.00013655424118041992,-0.003115061204880476,0.000910227419808507,0.00229845498688519,0.059124097,57.043552,Clouds
135131.967,-0.0015163123607635498,-0.0036559603177011013,-0.0001838207244873047,-7.257983088493347e-05,0.0011699110036715865,0.000707317958585918,0.050836574,57.043552,Clouds
135131.996,-0.001489795744419098,-0.004390418995171785,0.0001055598258972168,-0.003328729886561632,0.0008806014084257185,-0.0005126839969307184,0.04828475,57.043552,Clouds
135132.026,-0.00027196016162633896,-0.003522094339132309,-0.0012220144271850586,-0.0024005528539419174,-3.619888593675569e-05,-0.0017831652658060193,0.044574868,57.043552,Clouds
135132.056,6.588734686374664e-05,-0.0035791469272226095,-0.0005504488945007324,-0.0013363879406824708,0.0023407922126352787,0.0006551092956215143,0.039207466,57.043552,Clouds
135132.085,-0.0028643691912293434,-0.0038314927369356155,-0.00026029348373413086,-0.0021612364798784256,-0.00011608554632402956,0.0006814358057454228,0.03780941,57.043552,Clouds
135132.116,-0.002110198140144348,-0.002958053955808282,-0.0007176995277404785,0.0013111282605677843,0.001356530119664967,-0.0007562789833173156,0.09993818,57.043552,Clouds
135132.146,-0.0007634731009602547,-0.0026474413461983204,-0.0017249584197998047,0.002606657100841403,-0.0015130306128412485,-0.00047462695511057973,0.1040187,57.043552,Clouds
135132.175,-0.0008432473987340927,-0.0036881649866700172,-0.0002601742744445801,0.0016322897281497717,0.0017114460933953524,-0.00023363495711237192,0.100293145,57.043552,Clouds
135132.205,-0.0025203879922628403,-0.0026076340582221746,-0.0008556842803955078,-0.00017450214363634586,0.0005835143965668976,0.002841728273779154,0.1352335,57.043552,Clouds
135132.235,-0.0009838156402111053,-0.0030738168861716986,-0.0010691285133361816,0.00012299069203436375,-0.0012305470881983638,0.0005935055087320507,0.13375132,57.043552,Clouds
135132.265,-0.0013981107622385025,-0.00302510941401124,-0.0007331967353820801,-0.00017002900131046772,-0.0006357930833473802,-0.001742268679663539,0.11984728,57.043552,Clouds
135132.295,-0.001199161633849144,-0.0036542071029543877,-0.0003212094306945801,-0.0001530814915895462,-0.0011188958305865526,-0.000635662698186934,0.11242122,57.043552,Clouds