Timestamp,AccelX,AccelY,AccelZ,GyroX,GyroY,GyroZ,AudioLevel,LightLevel,Weather
134820.967,0.0007735816761851311,-0.0016868109814822674,-0.0012827515602111816,0.0011324216611683369,0.0003338318783789873,-0.0007994381594471633,0.2397113,57.043552,Clouds
134820.996,0.000698561780154705,-5.231006070971489e-05,-0.000886082649230957,0.0019884523935616016,-0.0012888469500467181,0.0006480413721874356,0.22129187,57.043552,Clouds
134821.026,0.0010761609300971031,-0.0002529728226363659,-0.002671658992767334,0.0011575110256671906,4.904800152871758e-05,4.375004209578037e-05,0.17948048,57.043552,Clouds
134821.056,-8.476991206407547e-05,-2.9853545129299164e-06,2.9087066650390625e-05,-0.0017429233994334936,0.0011681593023240566,-9.705487173050642e-05,0.16726126,57.043552,Clouds
134821.085,0.0010825050994753838,-4.539918154478073e-05,-0.0011767148971557617,-0.0012484134640544653,0.0010706738103181124,0.0013834726996719837,0.15240955,57.043552,Clouds
134821.116,0.00018447358161211014,-0.0002774274908006191,-0.001817941665649414,0.004466427490115166,-3.171716525685042e-05,0.0017321495106443763,0.12904607,57.043552,Clouds
134821.146,9.460840374231339e-05,-0.00042369356378912926,0.00016546249389648438,-6.024469621479511e-05,0.002355542965233326,-9.640114149078727e-05,0.11782288,57.043552,Clouds
134821.176,0.0009775208309292793,-0.0007883110083639622,-0.0005821585655212402,-0.0007171996403485537,0.0009290328598581254,0.0005411656456999481,0.10563729,57.043552,Clouds
134821.205,0.000551179051399231,-0.000572902150452137,-0.0016347765922546387,0.0005960438866168261,-0.0005518252728506923,-0.00232907198369503,0.10177826,57.043552,Clouds
134821.235,-0.00020708981901407242,0.00011600460857152939,-0.001116037368774414,0.0012604864314198494,-0.00023285255883820355,-8.31354409456253e-05,0.09825885,57.043552,Clouds
134821.265,0.00022911187261343002,-0.00035584066063165665,-0.001222848892211914,4.056282341480255e-05,-0.0006659972132183611,-0.00033552880631759763,0.08905162,57.043552,Clouds
134821.295,0.0013958830386400223,-0.0005411631427705288,-0.00018543004989624023,0.00128542585298419,0.00023619904823135585,0.0005286752129904926,0.086219504,57.043552,Clouds
134821.325,0.0008816588670015335,-8.42846930027008e-06,-0.0013146400451660156,-0.002485289704054594,0.002483932999894023,0.001154610188677907,0.18663335,57.043552,Clouds
134821.354,-0.00026424042880535126,-0.00044444063678383827,-0.0017116665840148926,0.0025104605592787266,-0.00042632617987692356,0.000901892373804003,0.17232516,57.043552,Clouds
134821.384,0.0004126178100705147,-0.0003019915893673897,-0.000689387321472168,-0.0027805459685623646,0.001351387589238584,-0.0010509755229577422,0.18799387,57.043552,Clouds
134821.414,-2.4032779037952423e-05,-0.0008754380978643894,-0.0008272528648376465,0.0005568691994994879,0.002291800919920206,-1.824938226491213e-05,0.16594061,57.043552,Clouds
134821.444,0.0009882096201181412,-0.0005385028198361397,-0.0019107460975646973,-7.58396927267313e-05,-0.0003811015048995614,0.0016398743027821183,0.29958916,57.043552,Clouds
134821.474,-0.0001478521153330803,8.116522803902626e-05,-0.001010596752166748,-0.0010110284201800823,0.0004178101080469787,-0.0009625850943848491,0.26042762,57.043552,Clouds
134821.503,0.00027226004749536514,-0.0003473288379609585,-0.0006440877914428711,-0.0015034296084195375,-0.001734119956381619,-0.001899143448099494,0.32014948,57.043552,Clouds
134821.533,0.0016917772591114044,-0.00022448692470788956,-0.0014986991882324219,-0.0015279161743819714,0.0004840099427383393,0.00026413638261146843,0.30000094,57.043552,Clouds
134821.563,0.0003578169271349907,-4.0129292756319046e-05,-0.00023221969604492188,0.0012490821536630392,0.0008662709733471274,-0.0010529642459005117,0.42065954,57.043552,Clouds
134821.593,-0.00014943722635507584,0.0007353206165134907,-0.0017124414443969727,0.0015088908839970827,-0.0006007986376062036,0.0010688821785151958,0.49716753,57.043552,Clouds
134821.623,0.00029157381504774094,-0.0004924861714243889,-0.0015141963958740234,-0.0029803384095430374,0.0007206588634289801,-0.0005957706016488373,0.43717465,57.043552,Clouds
134821.653,0.0001279190182685852,-3.074761480093002e-05,-0.0014379024505615234,-0.0015669942367821932,0.002643914194777608,-0.00016066321404650807,0.41291013,57.043552,Clouds
134821.683,0.0007952824234962463,0.00020451610907912254,-0.0010718703269958496,-0.00046307523734867573,-0.00023312142002396286,-0.0001732480595819652,0.38176605,57.043552,Clouds
134821.712,0.000860072672367096,-0.00023571494966745377,-0.0024761557579040527,0.0003346391022205353,0.001209413050673902,0.0004043382068630308,0.31808037,57.043552,Clouds
134821.742,0.0005557909607887268,-0.00019763829186558723,-0.0013015270233154297,-0.0007511242292821407,0.0013512776931747794,0.00017025682609528303,0.37479442,57.043552,Clouds
134821.772,0.001070784404873848,-0.0005971831269562244,-0.0011641979217529297,-0.0025593892205506563,-0.002482978394255042,-0.00022589514264836907,0.34598488,57.043552,Clouds
134821.802,-0.00064796581864357,-0.0005617076531052589,-0.0019118785858154297,-0.0007767770439386368,0.0014364561066031456,0.00020269752712920308,0.33415425,57.043552,Clouds
134821.832,0.00032529421150684357,-0.0003072349354624748,-0.0018512606620788574,0.0017000236548483372,-0.0014480197569355369,0.0005614710971713066,0.3118478,57.043552,Clouds
134821.862,9.492971003055573e-06,-0.00025212299078702927,-0.0006763339042663574,2.2029969841241837e-05,0.0013197337975725532,0.0012142449850216508,0.53339106,57.043552,Clouds
134821.891,-0.00010414421558380127,-0.000182292889803648,-0.0007981061935424805,-0.0010504466481506824,0.001036844914779067,0.0018307480495423079,0.4938007,57.043552,Clouds
134821.921,0.0005698837339878082,0.0002623465843498707,-0.0013930201530456543,0.0003099741879850626,-0.0011810963042080402,-0.0007521354127675295,0.43684006,57.043552,Clouds
134821.951,0.0013144761323928833,-0.00040548713877797127,-0.0018201470375061035,-0.0008585855830460787,-0.0006326838629320264,0.00021807104349136353,0.42673564,57.043552,Clouds
134821.981,0.00037098024040460587,-0.00037950603291392326,-0.00023311376571655273,0.0011087208986282349,-0.0011602654121816158,1.6048550605773926e-05,0.3951586,57.043552,Clouds
134822.011,0.0009725913405418396,-8.046254515647888e-05,-0.001164257526397705,0.0013024224899709225,-0.00033243343932554126,-0.0015118059236556292,0.3447164,57.043552,Clouds
134822.041,0.0006445255130529404,0.00013529695570468903,-0.0016070008277893066,0.002018020721152425,-0.000801435555331409,-0.002696461509913206,0.33411863,57.043552,Clouds
134822.070,-2.8009526431560516e-05,0.00046493764966726303,-0.0005088448524475098,0.001796647673472762,-0.0019921620842069387,0.00022362201707437634,0.3654524,57.043552,Clouds
134822.100,0.0006776517257094383,-0.000489567406475544,-0.00037163496017456055,4.2462488636374474e-05,0.0013294267700985074,-0.0012386650778353214,0.33196023,57.043552,Clouds
134822.130,3.438722342252731e-05,0.00057939812541008,-0.0009972453117370605,-0.003740812186151743,0.0003698576183523983,-0.0009371123742312193,0.31255162,57.043552,Clouds
134822.160,0.00038431212306022644,0.00019041495397686958,-0.0019282102584838867,0.0021679275669157505,-0.0008800362120382488,0.0024263951927423477,0.2594364,57.043552,Clouds
134822.190,0.0006030835211277008,-0.0006065797060728073,-0.0018821358680725098,0.00015657278709113598,-0.0008647043723613024,-0.0006830816273577511,0.23941019,57.043552,Clouds
134822.219,0.00032839085906744003,0.0004900572821497917,-0.001088559627532959,0.002621646970510483,-0.0016510330606251955,0.0022329725325107574,0.20430984,57.043552,Clouds
134822.249,0.0008406266570091248,-0.00010447483509778976,-0.002202630043029785,0.0029717120341956615,0.0009345586877316236,9.636097820475698e-05,0.18652223,57.043552,Clouds
134822.279,0.0005422104150056839,-0.0002810303121805191,-0.0009974241256713867,0.0018739982042461634,-0.0008473268826492131,0.0016825515776872635,0.16860946,57.043552,Clouds
134822.309,0.0008924920111894608,-0.0004694419912993908,-0.0006009340286254883,0.0026315911673009396,-0.003068234072998166,0.00048025845899246633,0.14105055,57.043552,Clouds
134822.339,0.0003808615729212761,-0.0005090762861073017,-0.00024968385696411133,0.0002270820550620556,-0.0008825240656733513,0.003984527196735144,0.13373381,57.043552,Clouds
134822.368,0.0004485584795475006,-2.6477500796318054e-06,-0.00203549861907959,-0.000351856229826808,-0.0006277193315327168,0.0001271539367735386,0.12133002,57.043552,Clouds
134822.398,-0.0003334609791636467,8.932314813137054e-06,-0.00218808650970459,-0.0005346958059817553,-0.0010586100397631526,-0.000416986586060375,0.11252195,57.043552,Clouds
134822.428,0.0005024615675210953,-0.0004892894066870213,-0.000784456729888916,-0.0008091724012047052,-0.00016923148359637707,-0.0011947986204177141,0.109702915,57.043552,Clouds
134822.458,0.0006556287407875061,0.0005184612236917019,-0.0007083415985107422,-0.0011604377068579197,-0.0010069824056699872,-9.075913112610579e-06,0.09519339,57.043552,Clouds
134822.488,0.0006118267774581909,0.0005376390181481838,-0.0010287165641784668,-0.0008703325875103474,-0.00022044435900170356,0.0006392161594703794,0.09366499,57.043552,Clouds
134822.517,0.0005819443613290787,-0.000158646609634161,-0.0012732148170471191,0.0031743028666824102,0.0009523640619590878,-0.0005952442879788578,0.07959107,57.043552,Clouds
134822.547,5.6226737797260284e-05,0.0003905966877937317,-0.0010290145874023438,-0.002008151262998581,0.0005350956344045699,0.0011783672962337732,0.07250567,57.043552,Clouds
134822.577,9.578652679920197e-06,0.0007520583458244801,-0.0015630722045898438,0.0014354167506098747,-2.5410379748791456e-05,0.000672150170430541,0.07237497,57.043552,Clouds
134822.607,0.0011894702911376953,-0.0005299518816173077,-0.0019600391387939453,-9.206682443618774e-05,-0.0008077758830040693,-0.0026798592880368233,0.121226795,57.043552,Clouds
134822.637,0.00045570172369480133,0.00040588434785604477,-0.0014106035232543945,0.0009404858574271202,0.0017173077212646604,0.0038677635602653027,0.11299001,57.043552,Clouds
134822.667,-9.32617112994194e-05,-0.000187811441719532,-0.000983595848083496,-0.0019346754997968674,0.0008667806396260858,0.0007178972009569407,0.0945139,57.043552,Clouds
134822.697,0.000949174165725708,0.0001319507136940956,-0.00180739164352417,-0.0009208922274410725,0.0023815943859517574,0.0016099956119433045,0.090190046,57.043552,Clouds
134822.726,-0.00012564193457365036,-0.0005729668773710728,-0.0006018280982971191,-0.0012899413704872131,0.0013581261737272143,0.0003065941564273089,0.24589743,57.043552,Clouds
134822.756,-0.0001956271007657051,-0.00014200666919350624,-0.0009985566139221191,-0.00233352929353714,-0.00010576418571872637,0.00022450927644968033,0.27891538,57.043552,Clouds
134822.786,-0.00039590708911418915,-0.00011513335630297661,-0.0007391571998596191,0.0013490626588463783,0.001022616634145379,0.0005590887158177793,0.26842037,57.043552,Clouds
134822.816,0.003607802093029022,0.0015650209970772266,-0.0018835067749023438,-0.002062989864498377,0.001304555800743401,-0.00011409522267058492,0.23723252,57.043552,Clouds
134822.846,-2.781301736831665e-05,0.0006014802493155003,-0.0007088780403137207,0.0004005164373666048,6.593346188310534e-05,0.0023157023824751377,0.22492565,57.043552,Clouds
134822.876,-0.00241701677441597,-0.00015503168106079102,-0.00038868188858032227,-0.00021974067203700542,0.0006633634911850095,-0.00040796585381031036,0.22214761,57.043552,Clouds
134822.906,0.0009987642988562584,0.00031741242855787277,-0.0013347268104553223,0.0028112756554037333,0.00034527352545410395,0.0032936069183051586,0.19852972,57.043552,Clouds
134822.935,0.002659962512552738,0.0005048708990216255,-0.002097904682159424,0.0010369012597948313,0.0009543499327264726,-0.0020878163632005453,0.1947252,57.043552,Clouds
134822.965,-0.0019420720636844635,-0.00010243244469165802,0.00016045570373535156,-9.440979920327663e-05,-0.0005037448718212545,-0.0003469074727036059,0.35781083,57.043552,Clouds
134822.995,-0.0015765074640512466,-0.0007065720856189728,7.62939453125e-06,0.0023610726930201054,-0.0007139915251173079,0.0007537812925875187,0.3484111,57.043552,Clouds
134823.024,0.002765445038676262,0.000649589579552412,-0.0020216703414916992,-0.0011334840673953295,-0.0013770600780844688,-0.0013720307033509016,0.31942275,57.043552,Clouds
134823.055,0.0008125603199005127,-0.000161672942340374,-0.0020214319229125977,0.00013636820949614048,-0.0025558979250490665,0.0004355207784101367,0.2934167,57.043552,Clouds
134823.084,-0.001598978415131569,-0.00028375210240483284,-0.0018835663795471191,-0.0007259633857756853,-0.0002893659984692931,-0.0007336722337640822,0.28498226,57.043552,Clouds
134823.114,0.0009159091860055923,0.0005784300155937672,-0.00047963857650756836,-0.0031401272863149643,0.0009526988724246621,-0.00020285160280764103,0.2672647,57.043552,Clouds
134823.144,0.0022572334855794907,0.0004717162810266018,-0.0015020370483398438,0.0005635535344481468,0.0023454749025404453,-0.0003773528733290732,0.25880906,57.043552,Clouds
134823.174,-0.0007825726643204689,9.434297680854797e-06,-0.0004947185516357422,-0.0016735403332859278,0.0014727520756423473,-0.00015682994853705168,0.33653662,57.043552,Clouds
134823.204,-0.0008903089910745621,0.00017628725618124008,-0.0013030171394348145,0.0005625768098980188,-0.0015106627251952887,5.781662184745073e-05,0.30078042,57.043552,Clouds
134823.234,0.0003448827192187309,0.00029160408303141594,0.000970304012298584,0.002327966270968318,0.004225270822644234,-0.0012601623311638832,0.28654182,57.043552,Clouds
134823.264,0.0010747797787189484,-0.0004896977916359901,-0.0024014711380004883,-0.0036412840709090233,-0.0006273097824305296,-0.0012699725339189172,0.27274993,57.043552,Clouds
134823.293,-0.0007716827094554901,-0.0012398846447467804,-0.0015315413475036621,-0.0006023505702614784,0.0010642464039847255,0.0010963388485834002,0.23674542,57.043552,Clouds
134823.323,-0.0005941875278949738,0.00033232755959033966,0.0006658434867858887,0.0004156471695750952,0.00027379795210435987,8.839176734909415e-05,0.23398426,57.043552,Clouds
134823.353,0.0012171603739261627,0.0009358278475701809,-0.0010278820991516113,-0.002144218422472477,0.0017814959865063429,0.0030443849973380566,0.21013093,57.043552,Clouds
134823.383,0.0025309938937425613,-0.00016837799921631813,-0.0027059316635131836,0.00040604290552437305,-0.0017609541537240148,0.000853720644954592,0.20244332,57.043552,Clouds
134823.413,-0.0007152492180466652,0.00046870671212673187,-0.0011794567108154297,-0.0022125551477074623,0.0009330140892416239,0.0010657717939466238,0.19868456,57.043552,Clouds
134823.442,-0.001400059089064598,-0.00011952826753258705,0.00014799833297729492,0.0009850768838077784,0.0011775223538279533,0.0006070596282370389,0.1791983,57.043552,Clouds
134823.472,0.001905880868434906,0.0004314947873353958,0.0007886290550231934,0.000777294859290123,0.0005654401611536741,0.0006447642808780074,0.16661467,57.043552,Clouds
134823.502,0.0013934988528490067,-0.00023589516058564186,-0.0008133649826049805,-0.0027502516750246286,0.001442215172573924,0.000320028280839324,0.1472919,57.043552,Clouds
134823.532,-0.0009436123073101044,-0.0001634056679904461,-0.0014389753341674805,-0.0009581518825143576,0.0012048713397234678,0.000878336257301271,0.14358778,57.043552,Clouds
134823.562,0.0002934001386165619,-0.0006589377298951149,5.632638931274414e-05,0.0006051794625818729,-0.0011494099162518978,-0.0004704534076154232,0.14300796,57.043552,Clouds
134823.591,0.001651940867304802,-3.078347072005272e-05,-0.0011796951293945312,0.0005166579503566027,0.00020863756071776152,2.2214546333998442e-05,0.12845512,57.043552,Clouds
134823.621,0.00032139476388692856,0.00010281521826982498,-0.002064645290374756,0.001288998406380415,-0.0003209615242667496,0.0010429678950458765,0.1181847,57.043552,Clouds
134823.651,-0.001420818269252777,-0.000978376716375351,-0.0008745193481445312,7.208483293652534e-05,-0.000881961896084249,-0.0005850056186318398,0.2171491,57.043552,Clouds
134823.681,0.001167692244052887,0.0002631107345223427,-0.0017597675323486328,0.0015368170570582151,-0.0005228506634011865,0.00042092916555702686,0.21010584,57.043552,Clouds
134823.711,0.0011438382789492607,0.0006770449690520763,-0.0018970966339111328,-0.0020678401924669743,0.00026759086176753044,-0.0001317730639129877,0.19958568,57.043552,Clouds
134823.740,-5.259178578853607e-06,-0.0007399353198707104,-0.0005843639373779297,-0.002796553075313568,4.7860550694167614e-05,0.0015380698023363948,0.16245365,57.043552,Clouds
134823.770,-0.001356116496026516,0.00027687475085258484,-0.0008436441421508789,-0.001017294591292739,0.0009651877335272729,-0.000738812203053385,0.14848417,57.043552,Clouds
134823.800,0.002222508192062378,0.0002541961148381233,-0.0007216930389404297,-0.0004990899469703436,-0.0017484111012890935,0.000956507574301213,0.20430294,57.043552,Clouds
134823.830,0.0006050942465662956,0.0002149045467376709,-0.0009655356407165527,-0.002833674196153879,-0.002386239590123296,-3.2671960070729256e-06,0.20090282,57.043552,Clouds
134823.860,-0.0007553054019808769,-0.000982031226158142,-0.0005837678909301758,-0.001192496158182621,-0.002540590474382043,-0.0009740071836858988,0.18378633,57.043552,Clouds
134823.890,-4.8955902457237244e-05,-0.0006549237295985222,-0.0011026859283447266,-0.0009581062477082014,0.000401039986172691,-0.0009733300539664924,0.16685438,57.043552,Clouds
134823.919,0.0016798265278339386,-0.0008204849436879158,-0.0022930502891540527,0.0019000894390046597,-5.7581426517572254e-05,0.0005885459831915796,0.16258237,57.043552,Clouds
134823.950,-0.0009868219494819641,0.00015331711620092392,-0.0020796656608581543,-0.0006612266879528761,-0.0006457943236455321,0.00031321190181188285,0.14336254,57.043552,Clouds
134823.979,-0.0007438184693455696,-0.0011308551765978336,-0.0014845728874206543,-0.0006106039509177208,-0.00018970828386954963,-0.0008901896653696895,0.13182184,57.043552,Clouds
134824.009,0.0006384663283824921,0.0003998647443950176,-0.0028731822967529297,-0.0016005064826458693,-0.0012888181954622269,0.0004447698884177953,0.123517655,57.043552,Clouds
134824.039,0.0009619724005460739,-1.527555286884308e-05,-0.00020259618759155273,0.0022204758133739233,-0.0007527320412918925,0.0005517928511835635,0.2050501,57.043552,Clouds
134824.068,-0.0010969555005431175,-0.00023122504353523254,-0.0003095269203186035,0.0028550648130476475,0.0011270473478361964,0.00014801431098021567,0.19103955,57.043552,Clouds
134824.098,0.0001481417566537857,0.0002903509885072708,-0.0008286833763122559,0.0006390714552253485,-0.0016214747447520494,0.00023075516219250858,0.16668011,57.043552,Clouds
134824.128,0.000880533829331398,-0.0005375850014388561,-0.0013172626495361328,0.002143834251910448,-0.00226110708899796,0.0005652765394188464,0.1575901,57.043552,Clouds
134824.158,-0.00014984514564275742,-0.0008084536530077457,-0.000630795955657959,-0.0025593326427042484,0.00200645555742085,0.0002442713303025812,0.14810497,57.043552,Clouds
134824.188,-0.0008067348971962929,-0.0004705125465989113,-0.0005851387977600098,0.0005446516443043947,-0.002192326355725527,0.0005903701530769467,0.13118576,57.043552,Clouds
134824.218,0.00032678619027137756,-7.648440077900887e-05,-0.0013326406478881836,0.001893139211460948,-7.366426871158183e-05,0.00025330003700219095,0.11787161,57.043552,Clouds
134824.248,0.0006597684696316719,-0.00025551067665219307,-0.0012868642807006836,-0.0016835900023579597,-0.001320238457992673,-0.0015163684729486704,0.09729994,57.043552,Clouds
134824.277,-0.0010065501555800438,-0.00026751961559057236,-0.0008137226104736328,0.003860105760395527,-0.0004387209773994982,-0.0040890127420425415,0.08844393,57.043552,Clouds
134824.307,0.00016187038272619247,-0.00033365003764629364,-0.001500546932220459,-0.002766293939203024,-0.00038754340494051576,-0.00043912301771342754,0.08141743,57.043552,Clouds
134824.337,0.0005339989438652992,0.0004143770784139633,-0.0017902255058288574,0.00203778431750834,-0.002383158542215824,-0.0032226366456598043,0.06949656,57.043552,Clouds
134824.367,0.0006763869896531105,-0.0009073177352547646,-0.0020340681076049805,-1.8009450286626816e-06,0.00039835594361647964,-0.00214885245077312,0.06389597,57.043552,Clouds
134824.397,-0.0010610539466142654,-0.0012520290911197662,-0.0004165768623352051,-0.0020210316870361567,0.0007572841132059693,0.0010326646734029055,0.0525036,57.043552,Clouds
134824.427,0.0002445904538035393,-0.0007332111708819866,-0.0007674098014831543,-0.0026078615337610245,0.00010725576430559158,-0.0012114109704270959,0.048683587,57.043552,Clouds
134824.457,0.0004349220544099808,-0.00025590136647224426,-0.00021791458129882812,-0.00036521232686936855,-7.625144644407555e-05,-0.001127695431932807,0.04625186,57.043552,Clouds
134824.486,0.00029232073575258255,9.778840467333794e-05,-0.001698136329650879,0.0008935399819165468,-0.0002846027782652527,0.0016741373110562563,0.15461418,57.043552,Clouds
134824.516,-0.00029297079890966415,0.00012316927313804626,-0.0012862682342529297,0.0009157955646514893,-0.0004658567486330867,-0.00024168792879208922,0.14471142,57.043552,Clouds
134824.546,0.0007794667035341263,-0.0008126460015773773,-0.0005384087562561035,-0.003382974537089467,-0.0007799540180712938,0.0005510514602065086,0.1281122,57.043552,Clouds
134824.576,0.0007468936964869499,-0.00031136348843574524,-0.0007520914077758789,-0.0008470180910080671,-0.0006174640147946775,0.0008275294676423073,0.1240792,57.043552,Clouds
134824.606,-0.00043529830873012543,0.0004190518520772457,-0.0017743110656738281,-0.001223148312419653,-0.0004602436092682183,0.001082628732547164,0.11843342,57.043552,Clouds
134824.635,-0.0003707371652126312,3.4510623663663864e-05,-0.0004163384437561035,-0.00022087828256189823,-0.0021515812259167433,0.0010480144992470741,0.11957947,57.043552,Clouds
134824.665,0.0008496111258864403,-0.0004945849068462849,-0.0020638704299926758,-0.002816231222823262,0.0007560397498309612,-0.002256611129269004,0.11510751,57.043552,Clouds
134824.695,0.0009209420531988144,-0.0004168194718658924,-0.0008281469345092773,-0.0004791948013007641,0.0021522901952266693,-0.0002067552413791418,0.094870955,57.043552,Clouds
134824.725,-0.0006455602124333382,-0.0005504474975168705,-0.0007520914077758789,-0.0015092571265995502,-0.0011622298043221235,-0.001211513881571591,0.086074956,57.043552,Clouds
134824.755,-0.00015944242477416992,-0.0002079308032989502,-0.0014691352844238281,-1.274491660296917e-05,0.0013910343404859304,0.0015810311306267977,0.078361556,57.043552,Clouds
134824.785,0.0012604547664523125,-0.0006287465803325176,0.0001946091651916504,0.00024906755425035954,-0.00013648334424942732,-0.00024532683892175555,0.08392601,57.043552,Clouds
134824.814,-0.00012762285768985748,-6.797211244702339e-05,-0.0014532804489135742,0.0024119215086102486,0.0002869869349524379,-0.0006540062022395432,0.07806117,57.043552,Clouds
134824.844,-0.0005974089726805687,-0.0008954196237027645,-0.0016363263130187988,-0.001786709763109684,0.0014350927667692304,-0.0012382827699184418,0.071463965,57.043552,Clouds
134824.874,0.0006240978837013245,-0.00046991510316729546,-0.0018961429595947266,0.0019141025841236115,0.0018868856132030487,0.0031889057718217373,0.07147974,57.043552,Clouds
134824.904,0.00039671920239925385,-0.0003909897059202194,-0.0006759166717529297,0.003234204836189747,-0.0013218511594459414,0.00028739782283082604,0.07913352,57.043552,Clouds
134824.934,-8.628703653812408e-05,-0.0004473491571843624,-0.0010725855827331543,-6.736349314451218e-05,0.0009236191981472075,-0.0006189881823956966,0.07117009,57.043552,Clouds
134824.964,-0.0005516670644283295,-0.0007589743472635746,0.0006211996078491211,0.002238083863630891,0.0005450511234812438,-0.0020717373117804527,0.06553521,57.043552,Clouds
134824.994,0.0007435763254761696,-7.834238931536674e-05,-0.0006905198097229004,-0.0029418463818728924,0.0006884767208248377,-0.002269438933581114,0.06930092,57.043552,Clouds
134825.023,0.00043960288166999817,3.105960786342621e-06,-0.0009804368019104004,-0.0010295838583260775,-0.0022157877683639526,-0.0006567949894815683,0.06459645,57.043552,Clouds
134825.053,-0.0005738344043493271,0.00017393426969647408,-0.001193702220916748,-0.0034115929156541824,0.0008308036485686898,-0.0018329306039959192,0.059223175,57.043552,Clouds
134825.083,-0.00048170890659093857,-9.460514411330223e-05,-0.0022770166397094727,-0.0015100063756108284,-0.0009668875718489289,-0.002244839444756508,0.051643472,57.043552,Clouds
134825.113,-4.751607775688171e-06,-0.0008063358254730701,-0.0015291571617126465,0.0010601808317005634,0.0003338371170684695,-0.0006534579442813993,0.050180495,57.043552,Clouds
134825.142,0.0011131176725029945,-0.0011557233519852161,-0.0021091103553771973,-5.944492295384407e-05,0.0012417638208717108,0.0008351040305569768,0.046903003,57.043552,Clouds
134825.173,-0.00013750791549682617,-0.0006625703535974026,-0.0004763603210449219,0.0005648387596011162,0.002254082588478923,-0.0006552813574671745,0.04455219,57.043552,Clouds
134825.202,-0.0005977079272270203,0.0004738541319966316,-0.0009036064147949219,0.0013395806308835745,-0.0008311463170684874,0.0007955715409480035,0.042031553,57.043552,Clouds
134825.232,0.0006022946909070015,-0.0003270772285759449,-0.0005371570587158203,0.0008429843001067638,0.0006171237328089774,2.4402514100074768e-05,0.035716556,57.043552,Clouds
134825.262,0.0010539554059505463,0.00013502128422260284,-0.0005828738212585449,-0.0019304219167679548,-0.00045678613241761923,0.0019693560898303986,0.033355914,57.043552,Clouds
134825.292,-0.0010067364200949669,4.98136505484581e-05,-0.0014525055885314941,-0.0010271852370351553,0.0013711393112316728,0.0003004578175023198,0.028775113,57.043552,Clouds
134825.322,-0.00015192851424217224,-0.000469437800347805,-0.0006895065307617188,0.0012996287550777197,0.001532583381049335,0.0006608385592699051,0.027114088,57.043552,Clouds
134825.352,0.00012082234025001526,-0.000977957621216774,-0.0015743374824523926,-0.0004208493046462536,-0.000304349756333977,0.0007364305783994496,0.026951881,57.043552,Clouds
134825.381,3.818422555923462e-07,-0.0005762497894465923,-0.0011927485466003418,0.0003139255568385124,0.0013027979293838143,0.0029206322506070137,0.049852908,57.043552,Clouds
134825.411,-0.00025158654898405075,-0.0006355270743370056,-0.0015131831169128418,0.0004251217469573021,8.745834929868579e-05,-0.0003982956404797733,0.05183685,57.043552,Clouds
134825.441,0.0006276173517107964,-0.0013202745467424393,-0.001147150993347168,3.4662894904613495e-05,4.2809726437553763e-05,0.00027160008903592825,0.07001308,57.043552,Clouds
134825.471,0.00023022573441267014,-0.0006178589537739754,-0.00046050548553466797,0.0005360147915780544,-4.231699858792126e-05,0.0004516287590377033,0.06509271,57.043552,Clouds
134825.501,-0.0006234962493181229,-0.0005139829590916634,-0.002504885196685791,-0.0005210968665778637,0.001269080676138401,0.0005825663101859391,0.059548244,57.043552,Clouds
134825.531,4.8764050006866455e-05,-0.0007579061202704906,-0.0010707378387451172,0.0003483674954622984,0.0011356135364621878,0.001735073747113347,0.05116845,57.043552,Clouds
134825.560,0.0005593672394752502,-0.0002687270753085613,-0.0010401606559753418,-0.0006738642696291208,0.001460462692193687,0.0003980188921559602,0.04784615,57.043552,Clouds
134825.590,-1.405365765094757e-05,-0.0009034997783601284,-0.00010949373245239258,0.00039041275158524513,-0.0004105461994186044,0.001220725942403078,0.044359654,57.043552,Clouds
134825.620,-0.0005816956982016563,-0.0006420891731977463,-0.001711428165435791,0.001009858213365078,0.0015414318768307567,0.0002499176771380007,0.043631803,57.043552,Clouds
134825.650,0.0005679680034518242,-0.0008696126751601696,-0.0005518794059753418,-0.0008100441191345453,0.0005430614110082388,0.0012356555089354515,0.0412708,57.043552,Clouds
134825.680,0.0013186298310756683,-0.00031069153919816017,-0.001681208610534668,-0.00017672870308160782,0.0003543851198628545,0.003192753065377474,0.03643729,57.043552,Clouds
134825.709,0.00015265587717294693,-0.00014552753418684006,-0.0023372769355773926,-0.001740548643283546,-0.0009760960238054395,0.0008981105638667941,0.033326466,57.043552,Clouds
134825.739,0.000287872739136219,-0.0002662111073732376,-0.0014370083808898926,-0.0007424328941851854,-0.0017382251098752022,0.0007603937992826104,0.08291903,57.043552,Clouds
134825.769,0.00013444852083921432,-0.0008469093590974808,-0.001970827579498291,-0.0005319095216691494,0.0021223626099526882,-0.0010266732424497604,0.09218245,57.043552,Clouds
134825.799,0.00034325383603572845,-0.0007197894155979156,-0.0006277561187744141,-0.0016994138713926077,-0.0013478350592777133,-0.0031468949746340513,0.122749105,57.043552,Clouds
134825.829,0.0003637447953224182,0.0006645848043262959,-0.0012537240982055664,0.0017935647629201412,-0.0011726393131539226,3.9308739360421896e-05,0.10899069,57.043552,Clouds
134825.859,-0.00038179196417331696,-0.0006689801812171936,-0.0019099116325378418,0.00036390149034559727,-0.0005516483215615153,0.0010512869339436293,0.09940062,57.043552,Clouds
134825.888,-0.000245402567088604,-0.0004358305595815182,-0.0008875727653503418,-0.0020502747502177954,0.0010788526851683855,0.0006878655985929072,0.08100688,57.043552,Clouds
134825.918,0.00037586502730846405,-0.0007623913697898388,0.00030231475830078125,-0.00028539146296679974,-0.002401370322331786,-0.0006941371248103678,0.07342628,57.043552,Clouds
134825.948,0.001310860738158226,-0.0002961992286145687,-0.0012846589088439941,-0.00011568889021873474,-0.0001818857272155583,-0.00022049341350793839,0.06650699,57.043552,Clouds
134825.978,0.00015067029744386673,0.0009384797886013985,-0.002139449119567871,0.0023034601472318172,-0.0008696427685208619,-0.000597260077483952,0.059588943,57.043552,Clouds
134826.008,0.0004576491191983223,-0.0006628017872571945,-0.0013156533241271973,-0.00016526086255908012,-0.0010348769137635827,-0.00011812109733000398,0.057490155,57.043552,Clouds
134826.038,-0.0008328678086400032,-0.0003240611404180527,-0.0011935830116271973,0.001077213790267706,-0.0026324132923036814,-0.0008287327946163714,0.051377572,57.043552,Clouds
134826.067,0.0009364085271954536,-0.00027730921283364296,-0.0005677938461303711,0.00010878592729568481,0.0008024691487662494,0.001080852933228016,0.050704602,57.043552,Clouds
134826.097,-0.0004367521032691002,-0.0007722354494035244,-0.0005372762680053711,-0.002981178928166628,-0.002204418880864978,0.0021342504769563675,0.050144006,57.043552,Clouds
134826.127,-0.00041631516069173813,-0.0007751667872071266,-0.0006589889526367188,-0.0010327070485800505,-0.0005405322881415486,0.000633246439974755,0.045149043,57.043552,Clouds
134826.157,0.0006479602307081223,-0.0005349698476493359,2.7477741241455078e-05,0.0013575314078480005,0.00120999151840806,-0.0032900595106184483,0.041915283,57.043552,Clouds
134826.187,0.0006021847948431969,-0.0007978975772857666,-0.0019716620445251465,0.0017084178980439901,0.0008796628098934889,1.609965693205595e-05,0.03877539,57.043552,Clouds
134826.216,2.4675391614437103e-05,-0.0004204357974231243,0.0003019571304321289,-0.0018790732137858868,-0.00039696734165772796,-0.000888423528522253,0.03689027,57.043552,Clouds
134826.246,0.00022681616246700287,-0.0006114584393799305,-0.0006437301635742188,0.0010062132496386766,0.0007972655585035682,-0.0013613479677587748,0.033995163,57.043552,Clouds
134826.276,0.00020359177142381668,-0.0012884698808193207,-0.0003235340118408203,-0.000257252249866724,-0.0017174388049170375,0.00010387192014604807,0.04319509,57.043552,Clouds
134826.306,-1.069623976945877e-05,-0.0007344712503254414,-0.0007508397102355957,0.0003612737637013197,-0.0004370312672108412,0.0008485598955303431,0.04679209,57.043552,Clouds
134826.336,0.0002546524628996849,-0.0006998209282755852,-0.001208662986755371,0.0020604159217327833,-0.0017445331905037165,0.00030312646413221955,0.09595115,57.043552,Clouds
134826.365,-0.0007342109456658363,-0.00013308506458997726,-0.0007355809211730957,0.0006961941253393888,0.0032326888758689165,0.0012231373693794012,0.08723981,57.043552,Clouds
134826.395,0.00037526339292526245,-0.0005778209306299686,-0.0010411739349365234,0.00036646798253059387,0.0018197705503553152,0.00043049739906564355,0.080945306,57.043552,Clouds
134826.425,0.000590677373111248,-0.00046223727986216545,-0.0012545585632324219,-0.0005616310518234968,-0.00043705536518245935,-4.4310931116342545e-05,0.07066501,57.043552,Clouds
134826.455,0.00044932402670383453,0.00021594995632767677,-0.001819312572479248,-0.0006048607174307108,-0.0007450025295838714,0.0008709184476174414,0.06426926,57.043552,Clouds
134826.485,0.0001065591350197792,-0.0004626018926501274,-0.0004004240036010742,-0.0008992375805974007,0.0015439644921571016,0.0016265781596302986,0.059063885,57.043552,Clouds
134826.515,0.00044501200318336487,-0.0005773808807134628,-0.000949859619140625,-0.001303809229284525,0.0012006897013634443,-0.0005836725467815995,0.05025842,57.043552,Clouds
134826.544,4.635937511920929e-05,-0.00035682041198015213,-4.941225051879883e-05,0.0023857648484408855,0.0014873206382617354,-0.002800742629915476,0.048164107,57.043552,Clouds
134826.574,0.000374501571059227,-0.0004845620132982731,-0.0007973909378051758,-0.00041125528514385223,-0.0012163572246208787,-0.002991642337292433,0.062292907,57.043552,Clouds
134826.604,0.00031174439936876297,-0.0002269204705953598,-0.00014102458953857422,0.0007233810611069202,-0.0014816798502579331,-0.0008744968799874187,0.057586703,57.043552,Clouds
134826.634,-7.655471563339233e-05,-0.00022226711735129356,-0.0006138086318969727,0.0003364286385476589,-0.00041091532330028713,-0.0002406522398814559,0.054812223,57.043552,Clouds
134826.664,0.0006439508870244026,-0.0004981430247426033,-0.0010413527488708496,0.003487886395305395,-0.001619738177396357,-0.0025565512478351593,0.050076265,57.043552,Clouds
134826.694,-0.000367932952940464,-0.0012497282586991787,-9.548664093017578e-05,-0.0002736113965511322,0.0005062828422524035,-0.0022956090979278088,0.04702353,57.043552,Clouds
134826.723,0.000158051960170269,0.00027901213616132736,-0.0019420981407165527,0.0008459468372166157,0.0005821448285132647,-0.000249635661020875,0.045058504,57.043552,Clouds
134826.753,0.0006236163899302483,-0.0005389503203332424,-0.0012097358703613281,0.001660526031628251,-0.0015982055338099599,0.0010435109725221992,0.043181896,57.043552,Clouds
134826.783,0.0004686666652560234,-0.0007015797309577465,-0.0014845728874206543,-0.0010228855535387993,-0.0003011209482792765,0.00026312581030651927,0.04049382,57.043552,Clouds
134826.813,-0.00023129116743803024,-0.00022192532196640968,-0.0017743706703186035,0.00025656563229858875,0.0013142141979187727,0.0013826689682900906,0.04857108,57.043552,Clouds
134826.843,0.00023798830807209015,-0.0002779192291200161,-0.0008129477500915527,0.00296891201287508,0.00029011242440901697,0.0010517534101381898,0.045386158,57.043552,Clouds
134826.873,0.0007320297881960869,-0.0004778588190674782,-0.0009045004844665527,-0.002068938221782446,0.00020365091040730476,0.000797367887571454,0.03962313,57.043552,Clouds
134826.903,0.00029125437140464783,0.0006339601241052151,-0.00018769502639770508,0.0011634205002337694,0.0018200920894742012,0.002226244192570448,0.036879588,57.043552,Clouds
134826.932,-6.538722664117813e-05,-0.0006475858390331268,-0.0007981061935424805,0.0009377235546708107,0.0013207057490944862,-0.0007307486375793815,0.033375926,57.043552,Clouds
134826.962,-3.252178430557251e-06,1.7276033759117126e-05,-0.0012102723121643066,0.0013598341029137373,-0.0014669604133814573,0.00045139496796764433,0.029078694,57.043552,Clouds
134826.992,0.00046555139124393463,-0.0008472832851111889,-0.0008745193481445312,0.0030163635965436697,-4.73255968245212e-05,-0.001747713889926672,0.11221264,57.043552,Clouds
134827.022,0.00021799933165311813,-0.0003126487135887146,-0.0004933476448059082,-0.0015857774997130036,0.0008776715840213001,-0.0002140284050256014,0.14024626,57.043552,Clouds
134827.052,0.0002846326678991318,-0.0005185604095458984,-0.0015464425086975098,0.0005764456000179052,0.0010461962083354592,0.0022023844067007303,0.12868193,57.043552,Clouds
134827.081,0.0002893581986427307,-0.00044005271047353745,-0.00026422739028930664,-0.0006975254509598017,-0.0012760540703311563,-0.00025972939329221845,0.11970303,57.043552,Clouds
134827.111,-0.000769500620663166,2.1426938474178314e-05,-0.0002645254135131836,0.0015661874786019325,-0.00034740203409455717,-0.0007123366231098771,0.25974938,57.043552,Clouds
134827.141,0.0011659394949674606,2.8210226446390152e-05,-0.0016225576400756836,-0.00034924736246466637,-1.626657831366174e-05,-0.000631974427960813,0.24908586,57.043552,Clouds
134827.171,-0.00035597290843725204,-0.000732081476598978,0.0009558796882629395,0.002261187182739377,0.001819979283027351,-0.0015809802571311593,0.21370734,57.043552,Clouds
134827.201,-0.000535731203854084,-0.0002208617515861988,-0.0009363889694213867,-0.002457357943058014,0.0006122372578829527,0.003326544538140297,0.2060403,57.043552,Clouds
134827.231,-0.00021749082952737808,-0.00034090736880898476,-0.001455068588256836,0.0017698712181299925,0.003705665236338973,-0.002718874718993902,0.19701026,57.043552,Clouds
134827.260,0.0009906450286507607,-0.00019310740754008293,-0.0009974241256713867,0.0019550954457372427,-0.00011833624739665538,-0.0007046016398817301,0.16746968,57.043552,Clouds
134827.290,0.0003416426479816437,-0.0010388330556452274,-0.0009517073631286621,0.0023475089110434055,-0.0011426311684772372,-0.0007637696689926088,0.15596831,57.043552,Clouds
134827.320,-0.0005901185795664787,-0.000700152013450861,-0.002035200595855713,-0.0001407410018146038,0.000816820771433413,-0.0014165961183607578,0.13025513,57.043552,Clouds
134827.350,0.000867246650159359,5.66369853913784e-05,-0.0007383227348327637,-0.0016874703578650951,-0.0016212991904467344,0.0005526246386580169,0.12640573,57.043552,Clouds
134827.380,0.00047448650002479553,-0.0006384667940437794,-0.000982046127319336,0.0024571113754063845,-0.0022245014552026987,0.0015752995386719704,0.1237865,57.043552,Clouds
134827.410,0.0003563202917575836,-0.00026990706101059914,-0.0008597373962402344,-2.0771287381649017e-05,1.5689569409005344e-05,-0.000735801993869245,0.112939306,57.043552,Clouds
134827.440,0.00012301653623580933,-0.00030175549909472466,-0.0011650323867797852,-0.00199112924747169,-0.00048391520977020264,-0.0018733064644038677,0.10820867,57.043552,Clouds
134827.469,1.5597790479660034e-05,-0.000732500571757555,-0.0018211007118225098,-0.0012756658252328634,0.00026655648252926767,0.000179826223757118,0.09520181,57.043552,Clouds
134827.499,-0.0004328181967139244,-0.00036126701161265373,-0.0012565255165100098,-0.0026464834809303284,0.00031019921880215406,-0.0005927467718720436,0.089933805,57.043552,Clouds
134827.529,-7.97901302576065e-05,-0.00026279641315340996,-0.002233445644378662,0.0012703794054687023,-0.0008343174704350531,0.000745186407584697,0.08536735,57.043552,Clouds
134827.558,-0.00035041850060224533,0.00027689430862665176,-0.0010586977005004883,-0.00019674771465361118,9.796246013138443e-05,-0.001888913568109274,0.0769322,57.043552,Clouds
134827.589,0.00036334898322820663,-0.0007097413763403893,5.53131103515625e-05,0.00032350141555070877,-3.851170185953379e-05,0.0004873989964835346,0.073473796,57.043552,Clouds
134827.619,0.0004959618672728539,-0.00040526362136006355,-0.0013031363487243652,2.929545007646084e-05,-0.0007442289497703314,-0.0010937615297734737,0.087068595,57.043552,Clouds
134827.648,0.00022213440388441086,-0.00032745394855737686,-0.0019896626472473145,0.00018524564802646637,-0.0002592403325252235,-0.001655462197959423,0.113683596,57.043552,Clouds
134827.678,6.506498903036118e-05,-0.00042903609573841095,-0.0012572407722473145,0.0014100393746048212,5.6600445532239974e-05,-0.0007248175679706037,0.10789084,57.043552,Clouds
134827.708,0.00019554514437913895,-0.0005231639370322227,-0.0009368062019348145,0.002503723604604602,-0.0013425820507109165,0.001264073420315981,0.124496505,57.043552,Clouds
134827.738,0.0003375234082341194,-0.0005115065723657608,-0.0018672943115234375,-0.002381489146500826,1.6446851077489555e-05,-0.0036821288522332907,0.11914916,57.043552,Clouds
134827.767,0.000795283354818821,-0.0005265739746391773,-0.0008296966552734375,6.803893484175205e-05,-0.0010408483212813735,0.001091720536351204,0.16657445,57.043552,Clouds
134827.797,0.0002499036490917206,-0.0009058956056833267,-0.0018216967582702637,-0.0028061936609447002,0.0004425799706950784,-0.0002720766351558268,0.15601085,57.043552,Clouds
134827.827,-0.00016329623758792877,-0.0003748261369764805,-0.0007383823394775391,-8.539343252778053e-05,-0.0002670030517037958,-0.0003446518094278872,0.1478639,57.043552,Clouds
134827.857,-0.0009228484705090523,1.8392689526081085e-05,-0.000586092472076416,-0.002544908784329891,0.0005956859095022082,0.00031322104041464627,0.14850146,57.043552,Clouds
134827.887,0.0005133682861924171,-0.0007497742772102356,-0.0008301734924316406,0.00012297485955059528,0.0010923015652224422,4.102144157513976e-05,0.1394857,57.043552,Clouds
134827.917,0.0005012266337871552,-0.0014286460354924202,-0.0008150935173034668,-0.0001384520437568426,0.0011553933145478368,0.0015080126468092203,0.18942887,57.043552,Clouds
134827.947,-0.0006763646379113197,-0.0008659875020384789,-0.000891268253326416,0.0008619860745966434,-0.00023775079171173275,-4.439702024683356e-05,0.18007776,57.043552,Clouds
134827.976,-0.0002225153148174286,-0.0007915003225207329,-0.0015166401863098145,-0.0010098228231072426,0.0016470274422317743,0.0011472241021692753,0.16572814,57.043552,Clouds
134828.006,-0.00016811024397611618,-0.001037529669702053,-0.000555574893951416,7.86944292485714e-06,0.0014136109966784716,-0.0017149101477116346,0.13879944,57.043552,Clouds
134828.036,0.0006292937323451042,-0.0007799998857080936,-0.0002961158752441406,0.00010497705079615116,0.0018941768212243915,-0.0016735401004552841,0.12441304,57.043552,Clouds
134828.066,-0.00020287930965423584,-8.447328582406044e-05,-6.717443466186523e-05,-0.0009359223768115044,-0.0007225120207294822,9.136809967458248e-05,0.10007799,57.043552,Clouds
134828.095,-0.00019889511168003082,-0.00018647639080882072,-0.0016693472862243652,-0.0007549179717898369,0.0010531062725931406,0.0007483376539312303,0.09084496,57.043552,Clouds
134828.125,-0.00036472082138061523,-0.0002781408838927746,-0.00014382600784301758,-0.001145611284300685,0.000860175583511591,0.0015478741843253374,0.08225484,57.043552,Clouds
134828.155,-0.00023856665939092636,-0.0004113730974495411,-0.002737879753112793,0.0013557979837059975,0.0013043812941759825,-0.0003765255678445101,0.0677234,57.043552,Clouds
134828.185,-4.490744322538376e-05,-4.0234532207250595e-05,-0.0005404949188232422,-6.128428503870964e-05,-0.0005449670134112239,-7.729954086244106e-05,0.062450826,57.043552,Clouds
134828.215,-0.0004782145842909813,-6.896210834383965e-05,-0.0012422800064086914,-0.002866953844204545,0.0008852468454279006,-0.0003112349659204483,0.052011028,57.043552,Clouds
134828.245,-0.00030436087399721146,-0.0010036127641797066,-0.0012727975845336914,-0.0016050463309511542,0.0018593886634334922,-0.0006869099452160299,0.04745937,57.043552,Clouds
134828.275,0.00025433581322431564,-0.0009286226704716682,0.0001004338264465332,0.0008248372469097376,0.0016444101929664612,-0.0015449121128767729,0.04521985,57.043552,Clouds
134828.304,-0.0002783117815852165,-0.00034467410296201706,-0.0003877878189086914,-0.0018260304350405931,0.00018426083261147141,-0.0027481529396027327,0.04045984,57.043552,Clouds
134828.334,-0.00029061175882816315,-0.000548909418284893,-0.0019136667251586914,-0.00048319948837161064,0.0015743030235171318,-0.0016663913847878575,0.038699556,57.043552,Clouds
134828.364,-0.000354875810444355,-0.0010426626540720463,-0.00038754940032958984,-8.381321094930172e-05,0.0006568686803802848,0.0010256952373310924,0.036255796,57.043552,Clouds
134828.394,-0.0007545500993728638,-0.0007264544256031513,-0.0012572407722473145,-0.0008596065454185009,-0.002419330645352602,0.0020163587760180235,0.24316566,57.043552,Clouds
134828.424,-0.0005104616284370422,-0.0006515397690236568,-0.0007991194725036621,0.001232443144544959,0.00044344321941025555,0.0010290357749909163,0.2407221,57.043552,Clouds
134828.454,0.0001321779564023018,-0.000715513713657856,-0.0014397501945495605,0.0015265557449311018,-0.0015848347684368491,-0.0005231332033872604,0.20834558,57.043552,Clouds
134828.483,0.00027750618755817413,-0.0002801921218633652,-0.0015466809272766113,-0.0001413759309798479,-2.442516415612772e-05,-0.00127308233641088,0.19290936,57.043552,Clouds
134828.513,0.0005709268152713776,-0.0003942255862057209,-8.20159912109375e-05,0.0008265762589871883,0.0006261111702769995,-0.001501761027611792,0.16287784,57.043552,Clouds
134828.543,0.0003263922408223152,-0.0007102880626916885,-0.0018977522850036621,0.0009690241422504187,-0.00015737814828753471,-0.0012959877494722605,0.1497419,57.043552,Clouds
134828.573,-0.00010949000716209412,-0.00034689996391534805,-0.000982522964477539,0.0006968684028834105,0.0018599828472360969,0.0031066297087818384,0.13633867,57.043552,Clouds
134828.603,-0.0006654718890786171,0.00043822918087244034,-0.0009828805923461914,0.0035208698827773333,0.001531746587716043,-0.0002503978321328759,0.120176636,57.043552,Clouds
134828.632,-0.000922422856092453,3.1103380024433136e-05,-0.0008916854858398438,0.0008600929286330938,-0.0006565100629813969,-0.0007904220838099718,0.11095826,57.043552,Clouds
134828.662,-0.0005182158201932907,-1.863483339548111e-05,-0.0004951357841491699,0.00025011482648551464,0.0014757119351997972,0.0007358473376370966,0.094022036,57.043552,Clouds
134828.692,-0.0004941858351230621,-0.000248628668487072,-0.00022023916244506836,0.0014220059383660555,0.00014386328984983265,-0.003367025637999177,0.08758681,57.043552,Clouds
134828.722,-0.0001672022044658661,-2.9103830456733704e-05,-0.0007694363594055176,-5.702860653400421e-05,0.0015369231114163995,-0.001469887443818152,0.08070304,57.043552,Clouds
134828.752,-0.0007354710251092911,-0.0009027593769133091,-0.0012730956077575684,-0.0022333641536533833,0.0008665819768793881,-0.0005053216591477394,0.06905085,57.043552,Clouds
134828.782,4.4452957808971405e-05,-0.0010846774093806744,-0.0004490017890930176,-0.00022343802265822887,-0.001233209972269833,0.0018294565379619598,0.06869691,57.043552,Clouds
134828.812,-0.0004147011786699295,-7.7021773904562e-05,-0.0015475153923034668,0.0007589664310216904,0.0013659754768013954,0.0009020140860229731,0.08144579,57.043552,Clouds
134828.841,-0.0002806764096021652,-0.0007404065690934658,-0.00043386220932006836,0.000547005794942379,-0.0006842707516625524,-4.272285150364041e-05,0.07722332,57.043552,Clouds
134828.871,-1.3235025107860565e-05,-0.0001803557388484478,-0.0010746121406555176,0.00125023047439754,-0.0006461413577198982,-0.0002549777855165303,0.074362375,57.043552,Clouds
134828.901,0.00010157749056816101,-0.00046607526019215584,-0.0010442733764648438,-0.0012234803289175034,0.002561151050031185,-0.0003253795439377427,0.09417763,57.043552,Clouds
134828.931,0.00025794096291065216,-0.0006025745533406734,-0.0009527206420898438,-0.003184345318004489,-0.0013216102961450815,0.0005187636706978083,0.17920011,57.043552,Clouds
134828.961,3.220885992050171e-05,-0.0012143682688474655,-0.0009679198265075684,-0.0012165007647126913,-0.0010749794309958816,0.0002375491603743285,0.16185057,57.043552,Clouds
134828.990,5.120038986206055e-05,-0.00036574481055140495,-0.0013802051544189453,-0.0013813565019518137,0.0005941285053268075,5.341548239812255e-05,0.14902455,57.043552,Clouds
134829.020,0.0005758367478847504,-0.0005707545205950737,-0.0008459091186523438,-0.0002634052652865648,-0.0009675741312094033,0.0020184717141091824,0.13439637,57.043552,Clouds
134829.050,-0.00046161096543073654,-0.0007398361340165138,-0.0006015300750732422,-0.0012400613632053137,-8.131726644933224e-06,0.000881480984389782,0.121300235,57.043552,Clouds
134829.080,-0.0001326119527220726,-0.0006704665720462799,-0.0009832978248596191,-0.0016533747548237443,-9.485515329288319e-05,0.0014064253773540258,0.113175176,57.043552,Clouds
134829.110,0.0002791285514831543,-0.0007623718120157719,-0.0008462071418762207,0.0020675985142588615,-0.0019341526785865426,0.0014848301652818918,0.09569365,57.043552,Clouds
134829.139,0.00019459985196590424,-0.00048756832256913185,-0.0002968907356262207,-0.00012740027159452438,-0.0005656177527271211,0.0011860267259180546,0.09006184,57.043552,Clouds
134829.169,-0.0015515200793743134,-0.0009732777252793312,2.3603439331054688e-05,-0.0018410275224596262,0.00022765810717828572,-0.0015595760196447372,0.08255222,57.043552,Clouds
134829.199,-0.0005362937226891518,0.00018904311582446098,-0.0008312463760375977,0.00033247610554099083,0.0018060023430734873,-0.0019510785350576043,0.073145635,57.043552,Clouds
134829.229,5.966797471046448e-05,-0.0004628901369869709,-0.0013197064399719238,0.0016448048409074545,-0.0010548967402428389,0.00016712109209038317,0.06682978,57.043552,Clouds
134829.259,0.00037360936403274536,-0.0006445040926337242,-0.0015336275100708008,-0.001044013537466526,-0.0003115834842901677,0.0018011607462540269,0.068380356,57.043552,Clouds
134829.289,-0.0003988174721598625,-9.96273010969162e-05,-0.00116729736328125,-0.001643264782615006,-0.00043907383223995566,-0.0005957758985459805,0.06289169,57.043552,Clouds
134829.319,-0.0002774214372038841,-0.0006962628103792667,-0.0009385943412780762,-0.00017059873789548874,-0.00035557261435315013,-0.0018998810555785894,0.05936751,57.043552,Clouds
134829.349,3.4848228096961975e-05,8.938973769545555e-05,-0.0011826157569885254,0.000948125496506691,-0.00027078925631940365,-0.0018046556506305933,0.051841486,57.043552,Clouds
134829.378,-4.121195524930954e-05,-6.624264642596245e-05,-0.0010907649993896484,-0.0013683584984391928,-0.0001416175509802997,0.0008032735204324126,0.050521884,57.043552,Clouds
134829.408,0.0005563944578170776,-0.0004883441142737865,-0.00022101402282714844,0.0036150021478533745,-0.0003405566676519811,-0.0018845103913918138,0.04405855,57.043552,Clouds
134829.438,0.0002836780622601509,-0.0013118083588778973,-0.0024945735931396484,-0.0009721363894641399,-0.0015169450780376792,0.00024502744781784713,0.053474344,57.043552,Clouds
134829.468,-0.0012186430394649506,-0.0001155179925262928,-0.0009839534759521484,-0.0017076338408514857,7.91303173173219e-05,0.0007866445230320096,0.0503499,57.043552,Clouds
134829.498,0.00018461234867572784,-0.0010036672465503216,-0.0010142326354980469,0.00043811649084091187,-0.0002663670456968248,0.0010996770579367876,0.051415324,57.043552,Clouds
134829.527,-0.0008237306028604507,-0.0008084564469754696,-0.0009229183197021484,-0.0025186846032738686,0.0017881338717415929,0.0018194455187767744,0.04673279,57.043552,Clouds
134829.557,-0.00010773912072181702,-0.0001495727337896824,-0.0018078088760375977,-0.0021986844949424267,-0.0005704210489057004,-0.0012824067380279303,0.0419746,57.043552,Clouds
134829.587,-0.000685516744852066,-0.00010013347491621971,-0.0015021562576293945,0.00027698278427124023,0.0013042929349467158,-0.001474109012633562,0.05331114,57.043552,Clouds
134829.617,-0.000634562224149704,-0.0003769821487367153,-0.0015175342559814453,-0.0008975730743259192,-0.0005255521391518414,-0.00034782366128638387,0.051821496,57.043552,Clouds
134829.647,-0.000491083599627018,-0.0011625057086348534,-0.0008460879325866699,0.0009539462625980377,-0.0007845956715755165,-0.0005235710414126515,0.046136357,57.043552,Clouds
134829.677,-0.0005357833579182625,-0.0010488033294677734,-0.0007542967796325684,-0.0022323024459183216,0.00095772510394454,-0.0004104282706975937,0.04253817,57.043552,Clouds
134829.706,-0.0012191077694296837,-0.0006598443724215031,-0.0010439753532409668,0.0022131723817437887,0.0013755849795415998,0.0008431418100371957,0.039864715,57.043552,Clouds
134829.736,-0.000379723496735096,-0.00035833055153489113,-0.0016545653343200684,-0.0001360930036753416,0.00047472468577325344,-0.0005659266607835889,0.03481239,57.043552,Clouds
134829.766,-0.00022737495601177216,-0.0009197560139000416,-0.0005410909652709961,-0.000879255123436451,-0.0010625995928421617,-1.1165975593030453e-05,0.03357593,57.043552,Clouds
134829.796,-0.0008640894666314125,-0.00020280247554183006,-0.0006479024887084961,-0.0009796067606657743,0.0027969179209321737,0.000308436865452677,0.029780593,57.043552,Clouds
134829.826,0.0001686224713921547,-9.001325815916061e-05,-0.0026314854621887207,6.309407763183117e-05,-0.0007069114362820983,0.00022833439288660884,0.037182756,57.043552,Clouds
134829.856,0.00044957082718610764,-0.0008976259268820286,-0.0016398429870605469,-0.0005799902137368917,-0.0002000503009185195,0.0016106489347293973,0.032609876,57.043552,Clouds
134829.886,-0.00027850642800331116,-0.0009194309823215008,-0.0002511143684387207,-0.0013712933287024498,0.0006935638375580311,0.0015391225460916758,0.035354998,57.043552,Clouds
134829.915,-0.00020432844758033752,-0.0010603158734738827,-0.0009682178497314453,-0.0018989215604960918,3.871106309816241e-05,-0.00127128092572093,0.03372484,57.043552,Clouds
134829.945,-0.00017388351261615753,-0.0009885006584227085,-0.0008462667465209961,0.0014249486848711967,0.0006649153656326234,-0.0011140445712953806,0.068959534,57.043552,Clouds
134829.975,0.0008660471066832542,-0.0012438907288014889,-0.001197516918182373,-0.0038698967546224594,0.0012848585611209273,0.0008480307296849787,0.06750954,57.043552,Clouds
134830.005,-0.0013473732396960258,-0.0007099485956132412,0.0002066493034362793,-0.005304178688675165,-0.0013595332857221365,-0.000690435292199254,0.06517379,57.043552,Clouds
134830.035,-0.00025629159063100815,-0.0010799472220242023,-0.00037288665771484375,-0.00044048111885786057,-2.1556159481406212e-05,-0.0003029489889740944,0.06268894,57.043552,Clouds
134830.064,0.0005274293944239616,8.284533396363258e-05,-0.002097010612487793,-0.0033394789788872004,0.00016783182218205184,0.0016096681356430054,0.058337804,57.043552,Clouds
134830.094,-0.0003308327868580818,-0.0009471899829804897,-0.0018988251686096191,0.0020096811931580305,0.0009060116717591882,-0.0016508640255779028,0.049038183,57.043552,Clouds
134830.124,-0.00033150147646665573,-0.0013051456771790981,-0.001655280590057373,0.00013983598910272121,0.0011613639071583748,0.0002172917011193931,0.048072048,57.043552,Clouds
134830.154,-0.0010246019810438156,-0.0010544555261731148,-0.000831305980682373,0.001636772882193327,-0.0016059334157034755,0.0004832213162444532,0.043961726,57.043552,Clouds
134830.184,-0.0005272980779409409,-8.838251233100891e-05,-7.271766662597656e-06,0.000789897283539176,-0.0009255361510440707,-0.00040261022513732314,0.03790168,57.043552,Clouds
134830.214,-0.0014546159654855728,-0.0013587032444775105,-0.002204716205596924,0.0013765566982328892,0.0010267954785376787,0.0015122106997296214,0.035984118,57.043552,Clouds
134830.243,-0.0007140198722481728,-0.00037535233423113823,-0.0010907649993896484,-0.00021731643937528133,-0.0010703938314691186,0.0004458981566131115,0.031297825,57.043552,Clouds
134830.273,-1.298263669013977e-05,-0.0009031053632497787,-0.0006023645401000977,0.001379402820020914,0.0018450799398124218,-0.0013099191710352898,0.028902989,57.043552,Clouds
134830.303,0.0005239685997366905,-0.0006392435170710087,2.2709369659423828e-05,-0.0005392504390329123,-0.0009476501727476716,0.0013240932021290064,0.027977986,57.043552,Clouds
134830.333,-2.0713545382022858e-05,-0.0001217336393892765,-0.002006709575653076,0.0010334276594221592,-0.0009505199268460274,0.00029584133881144226,0.054701798,57.043552,Clouds
134830.362,-0.0001493627205491066,-0.0006396984681487083,-0.0015950798988342285,-0.0004767754580825567,0.0030602924525737762,0.0004633338830899447,0.053701326,57.043552,Clouds
134830.392,0.00010894797742366791,-0.0008538463152945042,-0.0012444257736206055,0.00028678285889327526,-0.0011816138867288828,1.3628974556922913e-05,0.04826722,57.043552,Clouds
134830.422,-0.0009363237768411636,-0.0003762897104024887,0.0002658963203430176,0.00017537502571940422,0.0007287429762072861,-0.0016008935635909438,0.045692522,57.043552,Clouds
134830.452,-0.0011430680751800537,-0.00021901307627558708,-0.0004968643188476562,0.0006000925786793232,0.0013614152558147907,0.0008099447004497051,0.04343309,57.043552,Clouds
134830.482,6.8461522459983826e-06,-0.0008824043907225132,-0.0010770559310913086,0.0010285598691552877,0.00040706584695726633,0.0013511369470506907,0.044417553,57.043552,Clouds
134830.512,-0.0012194197624921799,0.00014419620856642723,-0.0013518929481506348,-3.674207255244255e-05,-0.0005992795340716839,-0.00038201850838959217,0.043051295,57.043552,Clouds
134830.542,-0.000307668000459671,-0.0006338437087833881,-0.0012299418449401855,-0.0010362674947828054,0.00034958921605721116,0.000304247485473752,0.039064657,57.043552,Clouds
134830.571,-0.0004593776538968086,-0.0006850245408713818,-0.00034481287002563477,0.000537751242518425,0.0013797597493976355,0.0010226379381492734,0.03764714,57.043552,Clouds
134830.601,-0.0015010032802820206,-0.0004930766299366951,-0.0013218522071838379,-0.001339165261015296,-0.0002969092456623912,-0.0003159318002872169,0.03709251,57.043552,Clouds
134830.631,0.00013505853712558746,-0.0007805111818015575,-0.00036078691482543945,0.00028079678304493427,0.000740288058295846,0.0010109238792210817,0.034033023,57.043552,Clouds
134830.661,-0.000460578128695488,-0.0007211267948150635,-0.0010322928428649902,-0.00117952236905694,0.000566382659599185,-0.002222169190645218,0.03164446,57.043552,Clouds
134830.691,-0.0005748961120843887,-0.0006831693463027477,-0.0020702481269836426,-0.001387953758239746,0.0006134269060567021,0.0008757712785154581,0.030132754,57.043552,Clouds
134830.721,0.00018551573157310486,-0.0004436182789504528,-0.0017957091331481934,0.00014631962403655052,9.161353227682412e-05,0.0005903171258978546,0.03329428,57.043552,Clouds
134830.750,-0.0003539063036441803,-0.00110265938565135,-0.0016887784004211426,-0.0010197155643254519,0.00022997515043243766,-0.0019264149013906717,0.041829173,57.043552,Clouds
134830.780,-0.0005466984584927559,-0.0004974561743438244,-0.000849306583404541,0.0023360736668109894,0.00019504637748468667,0.0010706315515562892,0.07378496,57.043552,Clouds
134830.810,-0.00042431242763996124,-0.0005931812338531017,-0.0015361309051513672,-0.0011678258888423443,-0.0027050927747040987,-0.001423961715772748,0.068645485,57.043552,Clouds
134830.840,-0.000782436691224575,-0.000582435168325901,-0.0003610849380493164,-0.0010652730707079172,0.00024134117120411247,-0.0011139153502881527,0.06255521,57.043552,Clouds
134830.870,-0.00035603251308202744,0.0001785694621503353,-0.0016425251960754395,0.00023814686574041843,0.0006387414177879691,-0.0016640054527670145,0.05736062,57.043552,Clouds
134830.900,-0.0010713618248701096,-0.000721917487680912,-0.0020087361335754395,0.0002975736279040575,-0.0006119438912719488,-0.0016081638168543577,0.064493485,57.043552,Clouds
134830.929,-0.0005357582122087479,-0.0008925613947212696,-0.00022369623184204102,-0.0002618625294417143,-0.00044623107532970607,0.00026053274632431567,0.058661845,57.043552,Clouds
134830.959,-0.001019299030303955,-0.000911166425794363,6.604194641113281e-05,-0.001863964251242578,0.002186537254601717,-0.0018009461928158998,0.055280454,57.043552,Clouds