Timestamp,AccelX,AccelY,AccelZ,GyroX,GyroY,GyroZ,AudioLevel,LightLevel,Weather
134900.116,0.0030595650896430016,-0.002377353608608246,-0.0012565255165100098,0.0012634077575057745,-0.0003359242109581828,-8.974026422947645e-05,0.07192926,57.043552,Clouds
134900.145,0.00099081639200449,-0.003478560596704483,0.0003452897071838379,-0.002026922535151243,0.0012874510139226913,0.0018965320196002722,0.06904585,57.043552,Clouds
134900.175,0.001615733839571476,-0.003307909006252885,0.00011616945266723633,0.002547111827880144,-0.001570633496157825,0.0026003047823905945,0.293557,57.043552,Clouds
134900.206,0.0023418888449668884,-0.0016223674174398184,-0.0016385316848754883,0.000328992260619998,0.002071378519758582,0.0008492926135659218,0.29151973,57.043552,Clouds
134900.235,0.0005286568775773048,-0.0022240462712943554,-0.00032651424407958984,0.002730466891080141,0.0010586652206256986,0.0011914970818907022,0.27840227,57.043552,Clouds
134900.265,0.001068820245563984,-0.002787503181025386,-0.0009067058563232422,0.0006895221304148436,-0.0005714494618587196,-0.0008053735946305096,0.32073465,57.043552,Clouds
134900.295,0.0013250065967440605,-0.002312523080036044,-0.0011816024780273438,0.0003470305819064379,0.0004710615030489862,-0.002218398731201887,0.29034364,57.043552,Clouds
134900.325,0.0027481447905302048,-0.0019825883209705353,-0.0014408230781555176,0.001165461027994752,-0.0005104886367917061,-0.00038443366065621376,0.23725356,57.043552,Clouds
134900.355,0.001819320023059845,-0.0023709486704319715,-0.0004795193672180176,-0.0011303392238914967,0.0005331625579856336,0.00024022854631766677,0.21597709,57.043552,Clouds
134900.384,0.0015043104067444801,-0.003615493420511484,-0.00044929981231689453,0.0014519926626235247,0.0034386329352855682,0.0006933721015229821,0.19805966,57.043552,Clouds
134900.414,0.00211333017796278,-0.002309103962033987,-0.0007243752479553223,8.108140900731087e-05,0.002285679103806615,0.0015696896007284522,0.1675391,57.043552,Clouds
134900.444,0.002677355892956257,-0.0032220794819295406,-0.0009992718696594238,-0.00159830367192626,0.00015699198411311954,-0.00047280831495299935,0.15638128,57.043552,Clouds
134900.474,0.0014835763722658157,-0.0030963716562837362,-0.001014411449432373,0.0007959217764437199,0.00014259169984143227,0.0025185781996697187,0.14200133,57.043552,Clouds
134900.504,0.0015106191858649254,-0.002642734907567501,-0.0012128949165344238,0.0007638363167643547,1.4790581190027297e-05,0.0019750744104385376,0.16656789,57.043552,Clouds
134900.534,0.0023543965071439743,-0.0027265155222266912,-0.00035876035690307617,-0.0016496196622028947,-2.229101664852351e-05,0.0025502117350697517,0.16070515,57.043552,Clouds
134900.564,0.0015589762479066849,-0.0018381830304861069,-0.00034362077713012695,-0.0009909444488584995,-0.0007364609627984464,-0.0005986304604448378,0.13615538,57.043552,Clouds
134900.593,0.0006496058776974678,-0.002885290654376149,-0.0012134313583374023,0.0031382685992866755,0.0006442092126235366,-0.0017115180380642414,0.12763374,57.043552,Clouds
134900.623,0.002893613651394844,-0.002546729287132621,-0.0006642937660217285,0.002039050916209817,0.0016874212305992842,0.0005981693393550813,0.11356598,57.043552,Clouds
134900.653,0.002621142193675041,-0.002273367717862129,-0.0001303553581237793,0.0010722067672759295,0.0028804803732782602,-0.0013257861137390137,0.110159405,57.043552,Clouds
134900.683,0.0010206131264567375,-0.0023649828508496284,0.00025087594985961914,0.0016447834204882383,-0.0006935929413884878,-0.00044828688260167837,0.10166649,57.043552,Clouds
134900.713,0.005211833864450455,-0.00453972676768899,-0.004418849945068359,-0.0001519252546131611,0.0007035216549411416,0.000297904567560181,0.09043132,57.043552,Clouds
134900.743,-0.0004223957657814026,-0.00016830838285386562,0.002294600009918213,0.0011649392545223236,4.05888567911461e-05,-0.0004332027165219188,0.085473806,57.043552,Clouds
134900.773,-0.0010408991947770119,-0.0023286028299480677,6.639957427978516e-05,-0.000835200073197484,0.0016962845111265779,-0.0004906411631964147,0.09047248,57.043552,Clouds
134900.802,0.0030547790229320526,-0.0035557833034545183,-0.002344846725463867,0.0007515212055295706,0.00304324715398252,0.0015186469536274672,0.0903485,57.043552,Clouds
134900.832,0.002331395633518696,-0.0020544223953038454,-0.0008498430252075195,0.0007478927727788687,0.0012053436366841197,-0.0017856968333944678,0.09208895,57.043552,Clouds
134900.862,0.0008598612621426582,-0.002309946110472083,-0.0004992485046386719,-0.000641379039734602,0.0011706335935741663,-0.0004282604204490781,0.07781216,57.043552,Clouds
134900.892,0.0006569446995854378,-0.003262447426095605,0.00014156103134155273,-0.0013675037771463394,-4.207934398436919e-05,-0.0002984643797390163,0.07051992,57.043552,Clouds
134900.921,0.0023440755903720856,-0.0014435725752264261,-0.00010281801223754883,-0.00048428704030811787,-9.044162288773805e-05,-0.0006497742724604905,0.058640096,57.043552,Clouds
134900.951,0.0010079247877001762,-0.002558858133852482,-0.0009572505950927734,0.0034067905507981777,-0.000309698807541281,0.0007751348312012851,0.05820318,57.043552,Clouds
134900.981,0.0012857355177402496,-0.0029036886990070343,0.0004920363426208496,-0.0005534314550459385,-5.8750454627443105e-05,0.002016299171373248,0.05795835,57.043552,Clouds
134901.011,0.0023345546796917915,-0.0017106838058680296,-0.0009576082229614258,-0.0020675319246947765,-0.0009324699058197439,-0.0008541204151697457,0.05520165,57.043552,Clouds
134901.041,0.0018608979880809784,-0.0014947433955967426,-0.0010036230087280273,-0.0017197683919221163,-0.0002079961559502408,0.0033138201106339693,0.056519505,57.043552,Clouds
134901.071,0.0011635944247245789,-0.0025574651081115007,-0.0006225109100341797,0.002320630941540003,0.002429180545732379,-0.0015796978259459138,0.048224684,57.043552,Clouds
134901.100,0.0015458473935723305,-0.0029510182794183493,-0.0006074905395507812,-9.038508869707584e-05,-0.00014462442777585238,0.00034121808130294085,0.043967895,57.043552,Clouds
134901.130,0.001903223805129528,-0.0021112540271133184,4.89354133605957e-05,0.0004202381242066622,-0.0010560275986790657,-5.6800839956849813e-05,0.039894085,57.043552,Clouds
134901.160,0.0008020652458071709,-0.0022523829247802496,7.903575897216797e-05,-0.0005210200324654579,-0.0006240989314392209,-0.0016721070278435946,0.033523656,57.043552,Clouds
134901.190,0.0005834400653839111,-0.001969109522178769,0.0003076791763305664,-0.0007996268104761839,-0.000918214675039053,0.000226131291128695,0.030481491,57.043552,Clouds
134901.219,0.000804433599114418,0.0016236980445683002,0.03999447822570801,-0.0034237976651638746,-0.0061022331938147545,0.0002775154425762594,0.028540103,57.043552,Clouds
134901.249,-0.005374683067202568,0.007977740839123726,0.006990551948547363,-0.0012588242534548044,0.0045349267311394215,-0.00025108683621510863,0.12472666,57.043552,Clouds
134901.279,0.001997588202357292,-0.003484403481706977,-0.025220751762390137,0.002592551987618208,-0.0008392314193770289,-0.0008209483930841088,0.11935065,57.043552,Clouds
134901.309,0.005276832729578018,-0.007169542834162712,-0.02331376075744629,0.0006095494609326124,-0.001972996396943927,-0.0009849240304902196,0.11057514,57.043552,Clouds
134901.339,0.0038053346797823906,-0.002642886247485876,0.01916658878326416,-0.002082234248518944,0.0013503723312169313,0.0010518115013837814,0.1119566,57.043552,Clouds
134901.368,-0.0038296179845929146,0.0010814478155225515,0.017793774604797363,-0.004414177965372801,0.0009713821928016841,-0.00017132790526375175,0.10573003,57.043552,Clouds
134901.398,0.00045729242265224457,-0.0015335134230554104,-0.01693516969680786,0.000772570725530386,-0.0026665322948247194,-0.0005329935811460018,0.09772823,57.043552,Clouds
134901.428,0.00630633719265461,-0.005881838500499725,-0.011381268501281738,-0.0006654534954577684,-0.00125903042498976,7.681135321035981e-05,0.09326193,57.043552,Clouds
134901.458,0.0002746768295764923,-0.003003239631652832,0.010636746883392334,-0.0009993654675781727,0.001187750487588346,0.0010490227723494172,0.08322615,57.043552,Clouds
134901.488,-0.0008325604721903801,-0.001781898783519864,0.004349887371063232,-0.0006600965280085802,0.0022650682367384434,-0.00025739887496456504,0.079960264,57.043552,Clouds
134901.518,0.0016793329268693924,-0.0009379833936691284,-0.006667673587799072,0.0018460946157574654,-0.0005403102259151638,0.0013970008585602045,0.07440525,57.043552,Clouds
134901.547,0.0031729992479085922,-0.0022862511686980724,-0.004638373851776123,-0.0009920389857143164,0.00013340514851734042,0.0005550667410716414,0.06516075,57.043552,Clouds
134901.577,-0.0012684399262070656,-0.004066315479576588,0.003113090991973877,-0.0026699677109718323,-0.0015536326682195067,-0.0010737268021330237,0.060984913,57.043552,Clouds
134901.607,6.292853504419327e-05,-0.00202865619212389,0.0017397403717041016,0.0007781269960105419,-0.0002004417183343321,-0.00048367108684033155,0.051619664,57.043552,Clouds
134901.637,0.0037485919892787933,-8.453335613012314e-05,-0.0033264756202697754,-0.0017096248921006918,0.0007594816270284355,-0.0008875380153767765,0.05106894,57.043552,Clouds
134901.667,0.0018426142632961273,-0.002821757225319743,-0.0025481581687927246,-0.001211661146953702,-0.0004513903986662626,0.0006374111399054527,0.05408951,57.043552,Clouds
134901.697,-0.000889224000275135,-0.0042596133425831795,0.0013578534126281738,0.0009473864920437336,0.0004934038734063506,0.0009630514541640878,0.0792973,57.043552,Clouds
134901.727,0.002351166680455208,-0.0013528696727007627,0.0007933974266052246,0.0015144736971706152,0.0009390980121679604,0.0007944139651954174,0.08422325,57.043552,Clouds
134901.756,0.0030609499663114548,-0.0005478141829371452,-0.0026246309280395508,-0.0014084575232118368,0.00046328429016284645,-0.0016777185956016183,0.078261234,57.043552,Clouds
134901.786,0.0002895724028348923,-0.0019728252664208412,-0.0009313225746154785,0.0003565899096429348,0.0014698939630761743,-0.0023702378384768963,0.075058244,57.043552,Clouds
134901.816,0.0013003051280975342,-0.0027704699896275997,-0.00024437904357910156,0.001545569160953164,-0.0003964431816712022,-0.002136806957423687,0.07170959,57.043552,Clouds
134901.846,0.002916577272117138,-0.0015298794023692608,-0.001190483570098877,-0.0010739497374743223,0.00104035425465554,-0.002560958033427596,0.06468741,57.043552,Clouds
134901.876,0.0015094960108399391,-0.0014426384586840868,-0.0015411376953125,0.00015644170343875885,0.002084992825984955,-0.00014913332415744662,0.061355967,57.043552,Clouds
134901.905,0.0002751639112830162,-0.002128034131601453,-0.000457763671875,0.001423669746145606,-0.0024196638260036707,-0.0006251615704968572,0.052802555,57.043552,Clouds
134901.935,0.002210277132689953,-0.0026179361157119274,-0.0002442598342895508,-0.002378898672759533,0.001541206962428987,0.0005038101226091385,0.04975565,57.043552,Clouds
134901.965,0.0015634335577487946,0.0001765086781233549,0.003280460834503174,0.002117888303473592,0.0006560601177625358,0.0014604630414396524,0.046309963,57.043552,Clouds
134901.995,0.004410499706864357,-0.0036423932760953903,-0.003464043140411377,-0.0012838835828006268,0.00015882315346971154,-0.0008984727901406586,0.03938102,57.043552,Clouds
134902.025,0.0005322834476828575,-0.004894505254924297,-0.0031743645668029785,0.0023428432177752256,0.0017630071379244328,-0.0007014897419139743,0.03683297,57.043552,Clouds
134902.055,-0.0026597734540700912,-0.001728222705423832,0.00036531686782836914,-0.003416106104850769,0.00039579413714818656,-0.00060248002409935,0.04633659,57.043552,Clouds
134902.084,0.001264846883714199,-0.0010224564466625452,0.00048720836639404297,0.00032615847885608673,0.0003452481469139457,0.0008262207265943289,0.04219208,57.043552,Clouds
134902.114,0.004238452762365341,0.0012805031146854162,0.00013619661331176758,-0.00010481476783752441,0.0011493945494294167,-0.0018934238469228148,0.039246757,57.043552,Clouds
134902.144,0.0015760641545057297,-0.003133406164124608,-0.0019695162773132324,-0.0003979126922786236,-0.0012331786565482616,-0.0006666723638772964,0.034793984,57.043552,Clouds
134902.174,-0.002438991330564022,-0.00439375638961792,-0.00010800361633300781,4.210928454995155e-05,0.0002946175809483975,5.302520003169775e-05,0.033845965,57.043552,Clouds
134902.204,0.0025962525978684425,-0.0007592141628265381,-0.0001080632209777832,0.0008821750525385141,-0.0018160255858674645,0.0008619995205663145,0.07849137,57.043552,Clouds
134902.234,0.004387827590107918,0.000158586073666811,-0.0012063980102539062,0.0022201421670615673,-0.0007492048898711801,0.0005198170547373593,0.07833676,57.043552,Clouds
134902.264,-0.0008111121132969856,-0.0037275729700922966,-0.00045883655548095703,5.284068174660206e-05,0.001068191253580153,-0.0014089567121118307,0.07615048,57.043552,Clouds
134902.294,-0.0014262301847338676,-0.002985656727105379,-0.001344144344329834,0.0005917833186686039,0.0022332393564283848,0.0012141996994614601,0.07082897,57.043552,Clouds
134902.323,0.0045503294095396996,-0.0005538754630833864,-0.0009325146675109863,-0.00026357616297900677,-0.00218108668923378,0.0007375056156888604,0.066011995,57.043552,Clouds
134902.353,0.0016927681863307953,-0.000564156100153923,-0.0003070235252380371,0.0004973469767719507,0.0035205658059567213,0.0007178341038525105,0.057124022,57.043552,Clouds
134902.383,-0.0011838357895612717,-0.0039181397296488285,-0.0003680586814880371,0.0014507428277283907,-0.0015251357108354568,0.001506042666733265,0.052123576,57.043552,Clouds
134902.413,0.0007493365556001663,-0.002323842840269208,-0.0006580352783203125,8.819182403385639e-05,-0.0016159317456185818,0.0009270018781535327,0.051109873,57.043552,Clouds
134902.443,0.0039186617359519005,0.0005962485447525978,-0.0001240372657775879,-0.0006723273545503616,-0.0006352541968226433,-6.751238834112883e-05,0.10017943,57.043552,Clouds
134902.472,-0.0002879919484257698,-0.0022041015326976776,0.0003032684326171875,-0.00032219965942204,-0.0015872044023126364,-0.0010708323679864407,0.09791812,57.043552,Clouds
134902.502,-0.0006074206903576851,-0.002745300065726042,0.0003484487533569336,0.0011095230001956224,-0.0014740254264324903,0.0014763220679014921,0.087411724,57.043552,Clouds
134902.532,0.0026551466435194016,-0.0009622080251574516,-0.00024706125259399414,0.0004955392796546221,-0.0023842358496040106,-0.0007437311578541994,0.07895021,57.043552,Clouds
134902.562,0.0033080512657761574,-0.0006720027886331081,-0.0007809996604919434,-0.0011747507378458977,-0.0011138987028971314,-0.0019172955071553588,0.07545544,57.043552,Clouds
134902.592,-0.0009499033913016319,-0.002651110989972949,-0.00015544891357421875,0.0003466797061264515,-0.0017478109803050756,-0.0006222290103323758,0.077128395,57.043552,Clouds
134902.622,-9.735114872455597e-05,-0.0019118357449769974,-0.0007350444793701172,-0.0027033365331590176,0.0014549350598827004,-0.0010408204980194569,0.07152908,57.043552,Clouds
134902.651,0.002490278333425522,-0.0008436280768364668,-0.0012850761413574219,-0.0017410567961633205,-0.0006249865982681513,-0.00032801111228764057,0.06437885,57.043552,Clouds
134902.681,0.001189950853586197,-0.0013898788020014763,-4.887580871582031e-05,0.00011767866089940071,-0.001555292634293437,0.0011117605026811361,0.06303919,57.043552,Clouds
134902.711,-0.0004320414736866951,-0.0028015519492328167,-0.0011626482009887695,0.0005044150166213512,-0.0011142715811729431,0.0006285783601924777,0.06031119,57.043552,Clouds
134902.741,0.0012925462797284126,-0.0008932044729590416,-3.355741500854492e-05,-0.0011041653342545033,-0.0004977132775820792,-0.0007464031223207712,0.057245687,57.043552,Clouds
134902.771,0.0029728421941399574,-0.0010070260614156723,-0.001453101634979248,0.0008280661422759295,0.0008319804910570383,-0.0012780841207131743,0.055998955,57.043552,Clouds
134902.800,0.00030377786606550217,-0.0029393229633569717,0.0008053183555603027,0.0010683326981961727,-0.0027801431715488434,0.0009112761472351849,0.05008836,57.043552,Clouds
134902.830,0.0005443664267659187,-0.0023145503364503384,-0.0011631250381469727,0.0013098090421408415,7.966170960571617e-05,-0.00155706238001585,0.045649458,57.043552,Clouds
134902.860,0.002896999940276146,-0.0009774828795343637,-0.00044614076614379883,-0.0004441400524228811,0.0015868546906858683,0.00245237210765481,0.07995766,57.043552,Clouds
134902.890,0.0003254292532801628,-0.0014804904349148273,-8.004903793334961e-05,-0.0015878637786954641,-0.0026237242855131626,-0.002793511375784874,0.07775885,57.043552,Clouds
134902.920,0.000931641086935997,-0.0015524025075137615,0.0005611181259155273,-0.0003350938204675913,-0.0013336768606677651,0.00034578118356876075,0.09255556,57.043552,Clouds
134902.949,0.0004912354052066803,-0.001302504213526845,0.001018822193145752,-0.0003441802691668272,0.0013229117030277848,0.0013557784259319305,0.088425145,57.043552,Clouds
134902.979,0.001278379000723362,-0.001502776751294732,-0.0012088418006896973,-0.0016081316862255335,-0.0017528070602566004,0.000734370609279722,0.082508996,57.043552,Clouds
134903.009,0.0007075304165482521,-0.0021858566906303167,-0.0005683302879333496,0.0007877764292061329,1.3270211638882756e-05,-0.0006371165509335697,0.075075634,57.043552,Clouds
134903.039,0.0008868761360645294,-0.001954247010871768,-0.0012089014053344727,0.0017712516710162163,0.0009745357092469931,0.002269232179969549,0.062375017,57.043552,Clouds
134903.069,0.000776226632297039,-0.0011048701126128435,-0.001056671142578125,-0.0034814539831131697,0.0014816831098869443,-0.001176233752630651,0.05797789,57.043552,Clouds
134903.098,0.0007774187251925468,-0.0018974058330059052,0.0010793805122375488,-0.00038175820372998714,0.0006542996852658689,0.0005951832281425595,0.052477982,57.043552,Clouds
134903.129,0.0016246531158685684,-0.0019805566407740116,-0.00023287534713745117,0.0015229331329464912,2.0436651539057493e-05,0.00122060754802078,0.048903666,57.043552,Clouds
134903.158,0.00047280173748731613,-0.001393930520862341,-0.00029402971267700195,-0.000939616234973073,0.001714891754090786,0.0008544172160327435,0.047774155,57.043552,Clouds
134903.188,0.0013663200661540031,-0.0011901149991899729,-0.000599205493927002,-4.5898137614130974e-05,-0.0005666598444804549,0.0003873380774166435,0.04357098,57.043552,Clouds
134903.217,0.0011101746931672096,-0.0021445027086883783,-0.0012249946594238281,-0.0011830867733806372,-0.0003238037461414933,-0.0009649050189182162,0.050608825,57.043552,Clouds
134903.248,0.0008709114044904709,-0.001406666822731495,0.00031638145446777344,-0.0003410722129046917,0.0023729773238301277,0.0009454068494960666,0.046739757,57.043552,Clouds
134903.278,0.0022950656712055206,-0.0013706025201827288,-5.0187110900878906e-05,-0.0021293354220688343,-0.00018494216783437878,0.0011514317011460662,0.04537954,57.043552,Clouds
134903.307,0.0001522684469819069,-0.002439709845930338,-0.0009961724281311035,-0.0007032852154225111,0.0005965000600554049,0.0007469186675734818,0.04210636,57.043552,Clouds
134903.337,0.0009532319381833076,-0.0017052963376045227,-0.0012707114219665527,-0.0015140915056690574,-0.0009823024738579988,0.0003959854075219482,0.03876906,57.043552,Clouds
134903.367,0.0013657249510288239,-0.000976010225713253,-0.0006296634674072266,9.821471758186817e-05,-0.00031599358771927655,-0.0016489552799612284,0.04370833,57.043552,Clouds
134903.397,0.00044917501509189606,-0.0016463526990264654,-0.0007975101470947266,0.0014330362901091576,-0.00020697872969321907,0.0008036132785491645,0.1732361,57.043552,Clouds
134903.427,0.00017261318862438202,-0.001000067451968789,8.755922317504883e-05,-0.00016523897647857666,0.0014373227022588253,0.0005230570677667856,0.16440518,57.043552,Clouds
134903.456,0.0016904724761843681,-0.0020589951891452074,-0.0016061663627624512,0.0012256358750164509,0.000903009029570967,0.0012355789076536894,0.15410422,57.043552,Clouds
134903.486,0.0013680839911103249,-0.0013973533641546965,-0.00027865171432495117,-0.0032239167485386133,0.00027598621090874076,0.0016086508985608816,0.13174562,57.043552,Clouds
134903.517,6.972625851631165e-05,-0.0017548769246786833,-9.572505950927734e-05,0.00011444557458162308,0.001001919386908412,0.0004723357269540429,0.1189409,57.043552,Clouds
134903.546,0.0007759016007184982,-0.002000092761591077,-1.9669532775878906e-05,0.0014430282171815634,0.0010304650058969855,-0.0002474448410794139,0.10788664,57.043552,Clouds
134903.576,0.0013145897537469864,-0.001924846787005663,-0.0016375184059143066,0.001864421647042036,0.00042958586709573865,-0.00036280351923778653,0.105966926,57.043552,Clouds
134903.606,0.0006215851753950119,-0.0008820604998618364,-0.000661015510559082,-0.000277308514341712,0.0008118963451124728,0.003105886047706008,0.101806484,57.043552,Clouds
134903.635,-2.5838613510131836e-05,-0.0003056218847632408,-0.0001271963119506836,0.00030292337760329247,0.0015107457293197513,0.0006910741794854403,0.09524381,57.043552,Clouds
134903.665,0.0013478081673383713,-0.0019107703119516373,-0.0001424551010131836,-0.0030865571461617947,0.0011826804839074612,-0.000649772584438324,0.09048703,57.043552,Clouds
134903.695,0.001326385885477066,-0.0005552025977522135,-0.0013478398323059082,-0.00043242378160357475,0.0009192203870043159,-0.00048309314297512174,0.082339875,57.043552,Clouds
134903.725,0.0013146307319402695,-0.002128629246726632,-0.0007831454277038574,-0.0015514513943344355,-0.0011576631804928184,-0.0007827789522707462,0.07904649,57.043552,Clouds
134903.755,0.00038057658821344376,-0.0023201974108815193,-0.0005390048027038574,0.00151683553121984,-0.0015606373781338334,-0.0011500096879899502,0.07655854,57.043552,Clouds
134903.785,0.0015984531491994858,-0.0014178042765706778,-0.0007221698760986328,0.0007016586605459452,-0.0006739996606484056,0.002076961798593402,0.06875157,57.043552,Clouds
134903.815,0.0017069745808839798,-0.0006350106559693813,-0.0012562274932861328,-0.003530022455379367,-0.0023922775872051716,0.0003523293125908822,0.07414161,57.043552,Clouds
134903.844,-0.0003618123009800911,-0.0020277195144444704,-0.0009359121322631836,0.00036381790414452553,0.0031308047473430634,0.00046577962348237634,0.07061799,57.043552,Clouds
134903.875,0.0008237753063440323,-0.0017163767479360104,-0.0005242824554443359,0.002912948140874505,-0.0015776092186570168,0.0005395611515268683,0.06982086,57.043552,Clouds
134903.904,0.001081760972738266,-3.5678036510944366e-05,-0.0006158947944641113,-0.0033960461150854826,-0.0004204470315016806,0.0012055872939527035,0.06933616,57.043552,Clouds
134903.934,0.00043428875505924225,-0.0012891064397990704,-0.0003865957260131836,-0.0006775090005248785,-0.0031817511189728975,-0.0015780800022184849,0.06778493,57.043552,Clouds
134903.964,-0.0005492810159921646,-0.0016295493114739656,-0.00011169910430908203,-0.0017249324591830373,-0.0008230002713389695,-0.0007240662234835327,0.086177036,57.043552,Clouds
134903.994,0.0013509448617696762,-0.0017504203133285046,-0.0001418590545654297,-0.0006036129780113697,-0.0038860628847032785,-0.0015802375273779035,0.07956934,57.043552,Clouds
134904.023,0.0020838938653469086,-0.0003961259499192238,-0.00017243623733520508,0.0008614638354629278,9.003783634398133e-05,0.0009997239103540778,0.07738867,57.043552,Clouds
134904.053,0.00048798415809869766,-0.0021384493447840214,-0.0005235075950622559,-0.0012186625972390175,-0.0016447065863758326,0.0021544310729950666,0.073935375,57.043552,Clouds
134904.083,0.0002374807372689247,-0.0014520962722599506,0.00036144256591796875,0.0007880234625190496,0.0007129512960091233,-0.0024151853285729885,0.074466385,57.043552,Clouds
134904.113,0.0011698529124259949,-0.0009744227863848209,-2.0265579223632812e-05,-0.0007820380851626396,9.617098839953542e-05,-3.614393062889576e-05,0.07242831,57.043552,Clouds
134904.142,0.001295851543545723,-0.001573808491230011,-9.66191291809082e-05,-0.0005859199445694685,-0.0016698867548257113,0.0006687454879283905,0.093954444,57.043552,Clouds
134904.173,0.0007663331925868988,-0.0021655946038663387,-0.002110779285430908,-0.0013200261164456606,-0.0007615548674948514,-0.001037209527567029,0.08920092,57.043552,Clouds
134904.202,0.0015835333615541458,-0.001582989003509283,-0.0014848113059997559,0.0026913948822766542,-0.00019190102466382086,-0.0002293974393978715,0.08684023,57.043552,Clouds
134904.232,0.0021782489493489265,-0.0012387796305119991,0.00022405385971069336,0.0018950363155454397,-0.0014422127278521657,0.0023105242289602757,0.07665821,57.043552,Clouds
134904.262,0.0007285289466381073,-0.001150129595771432,-0.00029468536376953125,-0.0003380165435373783,-0.0008613545214757323,-0.0017309393733739853,0.07194863,57.043552,Clouds
134904.292,0.0007435614243149757,-0.0021958318538963795,-0.0008898377418518066,0.00033863051794469357,-0.0017572325887158513,0.002338656922802329,0.058824204,57.043552,Clouds
134904.322,0.001331780105829239,-0.0012105281930416822,-0.0009355545043945312,0.0019022293854504824,-0.00017971728811971843,0.0006724938284605742,0.05411088,57.043552,Clouds
134904.351,0.0014201691374182701,-0.00036343582905828953,-0.00018781423568725586,-0.001787919201888144,-0.0006166097009554505,0.0008391815354116261,0.049712446,57.043552,Clouds
134904.381,-0.000537271611392498,-0.0017427473794668913,-0.0004470944404602051,0.0016053689178079367,-0.001126185874454677,-0.00022029841784387827,0.041402284,57.043552,Clouds
134904.411,0.0015216507017612457,-0.0006025317125022411,-0.0008590221405029297,0.00208281516097486,0.00030890057678334415,-0.0004329464281909168,0.037610803,57.043552,Clouds
134904.441,0.0013547372072935104,-0.0011688899248838425,-0.0010572075843811035,0.00043509271927177906,0.0007905818638391793,-0.0015845333691686392,0.03381571,57.043552,Clouds
134904.471,0.0007994072511792183,-0.0015719181392341852,0.0006822943687438965,-0.0010265568271279335,0.00014787082909606397,-0.00031058286549523473,0.031717043,57.043552,Clouds
134904.501,0.00018431991338729858,-0.002179872477427125,-0.0004621744155883789,-1.3034092262387276e-05,-0.0007036338793113828,0.0010689599439501762,0.029496707,57.043552,Clouds
134904.531,0.0011335723102092743,-0.0010522252414375544,-0.0007979869842529297,0.002685877727344632,-0.0013134704204276204,-0.0011365337995812297,0.026231954,57.043552,Clouds
134904.560,0.0015083234757184982,-0.000729158753529191,0.0003618597984313965,-0.0012755484785884619,-0.0005567771149799228,0.0012674325844272971,0.023934653,57.043552,Clouds
134904.590,0.0011300593614578247,-0.0016993882600218058,-0.0006145834922790527,0.0007352058310061693,0.0010736184194684029,0.0004994482733309269,0.021388475,57.043552,Clouds
134904.620,-5.6529417634010315e-05,-0.0016361377201974392,-0.0001265406608581543,-4.883366636931896e-05,0.0013593637850135565,-0.0019137555500492454,0.020579338,57.043552,Clouds
134904.650,0.0016077356413006783,-0.001251298002898693,-0.001026749610900879,-0.0012575092259794474,0.001512573566287756,-0.0021089292131364346,0.02460082,57.043552,Clouds
134904.680,0.0009434446692466736,-0.0007018330506980419,-0.0013626813888549805,0.0013159946538507938,0.00014782100333832204,-0.0011883338447660208,0.0220682,57.043552,Clouds
134904.709,0.0006190771237015724,-0.0017677957657724619,-0.00029456615447998047,-0.001640029833652079,-0.0007235942175611854,-0.0010407257359474897,0.021821517,57.043552,Clouds
134904.739,0.001606617122888565,-0.0010458880569785833,-0.0006757974624633789,-0.001127866329625249,-0.0005372825544327497,0.0010108293499797583,0.021282498,57.043552,Clouds
134904.769,0.002164718694984913,-0.0007485044188797474,-0.0003706216812133789,-0.0005099764093756676,-0.0003094215935561806,-0.0006088679656386375,0.019239562,57.043552,Clouds
134904.799,0.001103379763662815,-0.0021832927595824003,-5.0067901611328125e-05,-0.0027793871704488993,-0.00010943030065391213,8.944264845922589e-05,0.01787808,57.043552,Clouds
134904.829,0.001516927033662796,-0.001973561244085431,-0.00012630224227905273,-0.004897790960967541,0.0012595902662724257,0.00044022215297445655,0.016203415,57.043552,Clouds
134904.859,0.0009279204532504082,0.0009003228042274714,-0.007450520992279053,-0.0002498794347047806,0.0023297134321182966,0.000661172904074192,0.027866554,57.043552,Clouds
134904.889,0.0008499622344970703,-0.0006955277640372515,-0.004475414752960205,-0.002912480616942048,0.0007279843557626009,0.0012760334648191929,0.02469695,57.043552,Clouds
134904.918,0.000729450024664402,-0.0024238419719040394,0.003336966037750244,0.002573489909991622,0.003161238506436348,0.0002899248793255538,0.022887979,57.043552,Clouds
134904.948,0.00013436470180749893,-0.0018781183753162622,0.0006667375564575195,0.0016006408259272575,0.0024110530503094196,0.001986217685043812,0.02114146,57.043552,Clouds
134904.978,0.0013755429536104202,-0.0016718124970793724,0.0045885443687438965,0.0032050786539912224,0.00013179094821680337,-0.0013625735882669687,0.019272713,57.043552,Clouds
134905.008,0.0013653943315148354,-0.0010265270248055458,-0.0029796957969665527,-0.0014451146125793457,0.0021372190676629543,-0.0004963603569194674,0.017876485,57.043552,Clouds
134905.038,0.0012523271143436432,-0.001098743174225092,-0.0012554526329040527,0.000844049034640193,-0.0026448226999491453,0.0006449469365179539,0.01667216,57.043552,Clouds
134905.067,0.0021499115973711014,-0.0017221509478986263,-0.0007826089859008789,0.0009161520283669233,0.0021332330070436,-0.0010723643936216831,0.019794567,57.043552,Clouds
134905.097,0.0011959029361605644,-0.001440901542082429,-0.0002945065498352051,0.0010228208266198635,0.0030041947029531,0.00226592761464417,0.019276004,57.043552,Clouds
134905.126,0.0017231516540050507,-0.002203090116381645,-0.0008138418197631836,-0.0014769879635423422,0.001928704441525042,-0.0008046734728850424,0.017998973,57.043552,Clouds
134905.157,0.0007226094603538513,-0.001203829888254404,-0.0009514689445495605,0.0010980635415762663,0.001931108650751412,-0.0002553832600824535,0.03703988,57.043552,Clouds
134905.187,0.000186210498213768,-0.00178315001539886,-0.00018864870071411133,-0.0005993423983454704,-0.0004913805169053376,-0.0021165325306355953,0.07622683,57.043552,Clouds
134905.217,0.0007350342348217964,-0.001123758964240551,0.00013190507888793945,0.0017638476565480232,-8.951239578891546e-05,-0.0005172076635062695,0.07360735,57.043552,Clouds
134905.246,0.0016769403591752052,-0.0022298593539744616,0.0009406208992004395,-0.0022531156428158283,-0.0008452421752735972,0.003140087006613612,0.08459841,57.043552,Clouds
134905.276,0.0011025508865714073,-0.0014488690067082644,-0.0015465617179870605,0.00047184410504996777,0.001706515671685338,0.0008798626367934048,0.098515056,57.043552,Clouds
134905.306,0.0004164827987551689,-0.001900630770251155,-0.0015770792961120605,-0.001748042181134224,-0.00011264243221376091,-0.00031736260280013084,0.09643407,57.043552,Clouds
134905.336,0.0017600562423467636,-0.002262930618599057,0.0009556412696838379,0.0006116873119026423,0.0004948802525177598,0.00074809166835621,0.093572915,57.043552,Clouds
134905.366,0.001393812708556652,-0.0015815924853086472,-0.0007383823394775391,0.003404576564207673,0.000485196738736704,-0.001107849646359682,0.08621754,57.043552,Clouds
134905.396,0.0002459334209561348,-0.0019384403713047504,-8.249282836914062e-05,-0.0007904227823019028,0.00024028347979765385,0.00034919625613838434,0.08402014,57.043552,Clouds
134905.425,0.0013534333556890488,-0.002430920721963048,-0.000952601432800293,-0.0016447880771011114,0.00036150694359093904,0.001288019586354494,0.14280373,57.043552,Clouds
134905.455,0.00042862165719270706,-0.0007055569440126419,-0.0015017986297607422,6.021279841661453e-05,-0.00123863504268229,0.0017977822571992874,0.14082144,57.043552,Clouds
134905.485,0.0008614175021648407,-0.0014214108232408762,-0.000647127628326416,0.0011419907677918673,0.0016089469427242875,0.0022894511930644512,0.13670072,57.043552,Clouds
134905.515,0.0006288392469286919,-0.002963571110740304,-2.1696090698242188e-05,-0.0004567420110106468,-0.0022334353998303413,0.0012043280294165015,0.12223485,57.043552,Clouds
134905.545,0.0009271195158362389,-0.001526211155578494,0.00048160552978515625,0.0004632105119526386,-0.0016786734340712428,0.0016062280628830194,0.1467808,57.043552,Clouds
134905.574,0.0014868434518575668,-0.0005363908130675554,-0.0006173253059387207,-0.00012320466339588165,8.971309580374509e-05,-9.137444430962205e-05,0.13080032,57.043552,Clouds
134905.604,0.000415850430727005,-0.001620410243049264,-0.002036452293395996,0.0009252447634935379,-0.0024241197388619184,-0.001976417377591133,0.12455146,57.043552,Clouds
134905.634,0.0002788994461297989,-0.0018464375752955675,-0.001059889793395996,-0.0009063947945833206,-0.0005358939524739981,-0.0004831961705349386,0.11730815,57.043552,Clouds
134905.664,0.002143019810318947,-0.0011990205384790897,-0.00212782621383667,-0.0003722773399204016,-2.5078770704567432e-06,0.000986883300356567,0.11224425,57.043552,Clouds
134905.694,0.0003641285002231598,-0.0011962719727307558,0.0002066493034362793,0.0002605833578854799,0.0007416508160531521,0.0006105598295107484,0.110318325,57.043552,Clouds
134905.723,-0.0005100080743432045,-0.0018608351238071918,-0.0006477832794189453,3.175484016537666e-05,-0.0027288543060421944,0.001058145659044385,0.10394923,57.043552,Clouds
134905.753,0.001019318588078022,-0.0020257667638361454,-0.0006325244903564453,-0.0009233586024492979,-0.0014045636635273695,-0.00016743014566600323,0.09973147,57.043552,Clouds
134905.783,0.0022550616413354874,-0.000788260018453002,-0.0003731846809387207,0.001580187352374196,0.0006026006885804236,-0.0014438119251281023,0.094270095,57.043552,Clouds
134905.813,-8.598901331424713e-06,-0.0006129518151283264,-0.001197516918182373,-0.0024843262508511543,-2.8499678592197597e-05,-0.002846363466233015,0.08041607,57.043552,Clouds
134905.843,-0.0004651052877306938,-0.0017154277302324772,0.0007554292678833008,0.0003917100839316845,0.001040291041135788,-0.001379142515361309,0.07438361,57.043552,Clouds
134905.873,0.0022103851661086082,-0.001661274116486311,-0.0006638169288635254,0.0021116093266755342,-0.0013022602070122957,0.0013141970848664641,0.0614721,57.043552,Clouds
134905.903,0.003239794634282589,-0.002300988882780075,-0.00058746337890625,0.001991670811548829,-0.0013837773585692048,-0.0008867751457728446,0.055788137,57.043552,Clouds
134905.932,-0.0012667123228311539,-0.0027747913263738155,-0.0005112886428833008,-0.000936002703383565,-0.0007183023844845593,-0.00010998907964676619,0.050725188,57.043552,Clouds
134905.962,0.0019331183284521103,-0.0010612583719193935,-0.0012897253036499023,0.0020675447303801775,0.00023487604630645365,0.0016781871672719717,0.043396696,57.043552,Clouds
134905.992,0.0023577939718961716,-0.0002438973169773817,-0.0013510584831237793,7.596798241138458e-06,-0.0008835891494527459,-0.0009675645269453526,0.040487505,57.043552,Clouds
134906.022,-0.00013185851275920868,-0.0014782301150262356,-0.0004048347473144531,0.0015007758047431707,-0.0005536293028853834,0.0013789773220196366,0.036530286,57.043552,Clouds
134906.052,-0.0008089933544397354,-0.0014709453098475933,0.0008463263511657715,2.5192974135279655e-05,-2.5581000954844058e-05,-0.0004482296062633395,0.034899678,57.043552,Clouds
134906.081,0.0029466766864061356,-0.0018269584979861975,-0.00041997432708740234,0.00014626025222241879,0.0003774087817873806,0.0012577560264617205,0.032752402,57.043552,Clouds
134906.111,0.0020421789959073067,-0.0003930267412215471,-0.0006638169288635254,-0.0021767644211649895,0.0009186046663671732,-0.0001692483201622963,0.029076267,57.043552,Clouds
134906.141,-0.000643131323158741,-0.0017288473900407553,0.00017511844635009766,-0.0017233999678865075,-0.0006359867984429002,0.0003997144231107086,0.028722873,57.043552,Clouds
134906.171,0.0008367765694856644,-0.001568973995745182,0.0009534358978271484,-0.0031502018682658672,0.0009177210740745068,0.0018311130115762353,0.025770964,57.043552,Clouds
134906.201,0.0007617836818099022,-0.00032466184347867966,-0.0009540915489196777,-0.0009799960535019636,0.002392078284174204,0.0002069172915071249,0.024547743,57.043552,Clouds
134906.231,-0.0020513134077191353,0.0019156744237989187,0.0007852911949157715,-0.0015129956882447004,0.001296156900934875,0.00034599602804519236,0.022987485,57.043552,Clouds
134906.260,0.0008321162313222885,-0.003778021549805999,0.0008612275123596191,0.0006368029862642288,-0.0013079916825518012,-0.001206303364597261,0.020296926,57.043552,Clouds
134906.290,0.003111140802502632,-0.0024937151465564966,-0.0013360977172851562,-0.0007585384882986546,-0.0008412475581280887,0.00030646269442513585,0.019332308,57.043552,Clouds
134906.320,0.001515185460448265,7.428624667227268e-05,-0.0015652179718017578,-0.0037014996632933617,0.0020413286983966827,0.0029142573475837708,0.026132151,57.043552,Clouds
134906.350,-0.0014632102102041245,-0.0022607198916375637,-2.4318695068359375e-05,0.001378184650093317,0.0012443632585927844,-0.0004392261616885662,0.024252689,57.043552,Clouds
134906.379,0.0016512339934706688,-0.0027247313410043716,-0.001550436019897461,-0.004060354083776474,-0.0025445849169045687,0.0008246045326814055,0.027575538,57.043552,Clouds
134906.409,0.0012466302141547203,-0.0005322545766830444,-0.00019210577011108398,-0.002184623386710882,0.00020795752061530948,-0.0010031703859567642,0.065695755,57.043552,Clouds
134906.439,-0.00034493859857320786,-0.0020852219313383102,6.616115570068359e-06,-0.0022836527787148952,-0.001289350213482976,0.00037000380689278245,0.14152971,57.043552,Clouds
134906.469,-9.154435247182846e-05,-0.000984495971351862,-0.0015651583671569824,0.000729651190340519,0.0003175555029883981,-0.0007752792444080114,0.13147911,57.043552,Clouds
134906.499,0.0015056431293487549,0.0005709915421903133,-0.0007107853889465332,-0.0014296234585344791,0.00032609846675768495,-0.0011990261264145374,0.121332735,57.043552,Clouds
134906.529,0.00021053478121757507,-0.0023011458106338978,-0.0016719698905944824,0.0015399027615785599,0.0003839665441773832,-0.003864764701575041,0.11636736,57.043552,Clouds
134906.558,-0.0001979134976863861,-0.0024077531415969133,0.0001589655876159668,-0.0002293637953698635,-0.0007647994789294899,0.000527291907928884,0.10734232,57.043552,Clouds
134906.588,0.0005538268014788628,-0.0015053206589072943,-0.0005886554718017578,-0.0027621157933026552,0.0007211791817098856,0.00111117004416883,0.10009605,57.043552,Clouds
134906.618,0.002127491869032383,-0.0011948440223932266,-0.0004057884216308594,-0.0009218431077897549,0.005213835742324591,-0.0024015374947339296,0.12916678,57.043552,Clouds
134906.648,0.00045237503945827484,-0.002651582472026348,0.001562654972076416,0.0021063806489109993,-0.001242185477167368,0.0010263073490932584,0.12376493,57.043552,Clouds
134906.678,-0.000566873699426651,-0.0019116897601634264,-0.0002072453498840332,-0.0016391943208873272,0.00033528695348650217,-0.000298334751278162,0.113584906,57.043552,Clouds
134906.708,0.0013942485675215721,-1.6546575352549553e-05,-0.0017179250717163086,0.002225909847766161,0.0012130660470575094,-9.86824743449688e-05,0.104170606,57.043552,Clouds
134906.738,0.0008463654667139053,-0.0007695362437516451,-0.00017690658569335938,0.003477582009509206,0.00037800302379764616,-0.0014244311023503542,0.09828531,57.043552,Clouds
134906.768,-0.000940290279686451,-0.0023366513196378946,5.1975250244140625e-05,-0.0010132279712706804,0.0016794097609817982,-0.0009870424401015043,0.08185086,57.043552,Clouds
134906.797,0.000610855408012867,-0.0010961547959595919,-0.0018550753593444824,0.0004265354946255684,-0.0008143001468852162,0.0017308543901890516,0.07637658,57.043552,Clouds
134906.827,0.0026141274720430374,-0.0017518550157546997,-0.0010002851486206055,0.0022108054254204035,-0.0001123681286117062,-0.0005697044543921947,0.0716316,57.043552,Clouds
134906.857,0.0002485578879714012,-0.0018728571012616158,0.0011814236640930176,0.001633999403566122,0.0005405063857324421,0.0037620184011757374,0.06165457,57.043552,Clouds
134906.887,-0.000456126406788826,-0.0016337297856807709,-8.702278137207031e-06,-0.0007925897371023893,-0.00024501694133505225,0.0001193888601846993,0.057141148,57.043552,Clouds
134906.917,0.0018443595618009567,-0.0009210745338350534,-0.0014581084251403809,0.0010767981875687838,0.001766342669725418,0.0005107829347252846,0.08338043,57.043552,Clouds
134906.947,0.0015908628702163696,-0.0014081422705203295,-0.0013058781623840332,-0.0004887422546744347,0.00013822910841554403,0.0017379504861310124,0.0955533,57.043552,Clouds
134906.976,4.67151403427124e-05,-0.0014966269955039024,0.0008606910705566406,0.0007211000192910433,-4.445842932909727e-05,0.0006334365461952984,0.094950415,57.043552,Clouds
134907.006,-0.0008784551173448563,-0.0012471871450543404,0.0010742545127868652,0.0011209738440811634,0.0005247679655440152,0.0007708313642069697,0.089892544,57.043552,Clouds
134907.036,0.0016386732459068298,-0.0006601731292903423,-0.0021761655807495117,-0.00031345197930932045,-0.0010890797711908817,-0.0018385440343990922,0.09536821,57.043552,Clouds
134907.066,-0.00044854916632175446,-0.0007874914444983006,-0.002039194107055664,0.0006738039664924145,-0.0005453371559269726,0.0005287594394758344,0.08387414,57.043552,Clouds
134907.095,0.0010161586105823517,-0.002059443388134241,-0.0018868446350097656,0.00020970799960196018,-0.002390113193541765,0.000929789268411696,0.07952366,57.043552,Clouds
134907.125,0.0013820985332131386,-0.00160717754624784,0.00011211633682250977,-2.245185896754265e-06,-0.0037954854778945446,-0.0004242798895575106,0.07316186,57.043552,Clouds
134907.155,0.0009508654475212097,-0.0006757981609553099,0.00015783309936523438,0.0018190110567957163,-0.0005344954552128911,0.0024643726646900177,0.08720158,57.043552,Clouds
134907.185,-0.00039163045585155487,-0.001764177344739437,-0.0010783672332763672,-0.0022800147999078035,0.0007680156268179417,-0.0007202335982583463,0.08350892,57.043552,Clouds
134907.215,-0.0009248778223991394,-0.0013109303545206785,-0.0009561777114868164,0.001281150383874774,-0.0017551009077578783,-0.0010845710057765245,0.07451413,57.043552,Clouds
134907.245,0.0012694736942648888,-0.0018831277266144753,0.00021857023239135742,0.0005980143323540688,-0.0016124052926898003,-0.000969708664342761,0.13734713,57.043552,Clouds
134907.275,0.0012630689889192581,-0.0004953092429786921,-0.000803828239440918,0.00026644300669431686,6.35138712823391e-06,0.0006021519075147808,0.12901781,57.043552,Clouds
134907.304,-0.0001169200986623764,-0.0004257913678884506,-0.0013834834098815918,-0.002170284278690815,-0.0010636795777827501,0.0006455992115661502,0.10792065,57.043552,Clouds
134907.334,0.001408582553267479,-0.0015503258910030127,-0.0008494853973388672,-0.002584820846095681,0.00022547967091668397,0.0006471330998465419,0.09746297,57.043552,Clouds
134907.364,0.0025376789271831512,-0.0019147200509905815,-0.0006209611892700195,0.0005489487666636705,5.9062440413981676e-05,0.0015558174345642328,0.07991877,57.043552,Clouds
134907.394,0.0007144352421164513,-0.0023250326048582792,-0.001124560832977295,-5.577295087277889e-05,-0.00044947146670892835,-0.00042791018495336175,0.07728482,57.043552,Clouds
134907.424,-0.0003914171829819679,-0.0007379807066172361,-0.0008956789970397949,0.0010000611655414104,-0.001700500724837184,-1.6994308680295944e-06,0.07375564,57.043552,Clouds
134907.454,0.0014070654287934303,-0.001461570616811514,-0.0010179877281188965,0.00572613999247551,0.0003047123900614679,0.0011561623541638255,0.06659577,57.043552,Clouds
134907.483,0.0013535209000110626,-0.0013309887144714594,-0.0004534721374511719,-0.002227600198239088,-0.0005965200252830982,-0.0018485317705199122,0.065850824,57.043552,Clouds
134907.513,2.2834166884422302e-05,-0.0015696696937084198,-0.0012163519859313965,0.0010454242583364248,0.001451319083571434,-0.0007755418191663921,0.055207424,57.043552,Clouds
134907.543,0.0005367100238800049,-0.0012569990940392017,-0.0007431507110595703,-0.00029194564558565617,-0.0002963807201012969,-0.0007615500362589955,0.0526221,57.043552,Clouds
134907.573,0.0018897401168942451,-0.0011611324734985828,-0.0006971359252929688,-0.001179329352453351,-8.504636934958398e-05,0.0018218416953459382,0.048889764,57.043552,Clouds
134907.603,0.00048139598220586777,-0.0015572921838611364,-0.00046831369400024414,-0.0011906316503882408,-0.0015894229291006923,-0.0009131683618761599,0.04207401,57.043552,Clouds
134907.633,-0.00036648567765951157,-0.0013016459997743368,-0.001032710075378418,-0.0008242935873568058,7.819152961019427e-05,0.001939526293426752,0.03915165,57.043552,Clouds
134907.662,0.0011375444009900093,-0.0017577579710632563,-0.0005294680595397949,0.001226264052093029,-0.002548821968957782,0.0005977436085231602,0.03446312,57.043552,Clouds
134907.692,0.0010649720206856728,-0.0012646522372961044,-0.0008801817893981934,-0.0004639334511011839,-0.00037706148577854037,0.0010344050824642181,0.031789917,57.043552,Clouds
134907.722,0.0007854616269469261,-0.001826140796765685,-0.00025463104248046875,0.00026474776677787304,0.00016410145326517522,-0.0004420207114890218,0.029596787,57.043552,Clouds
134907.752,-7.83400610089302e-05,-0.0011276626028120518,0.0006911754608154297,0.0004650847986340523,0.002338498830795288,-0.0017453711479902267,0.026182987,57.043552,Clouds
134907.781,0.0006625698879361153,-0.0010585426352918148,-0.00048410892486572266,-0.0010609091259539127,0.0004728922504000366,8.153921226039529e-05,0.024754416,57.043552,Clouds
134907.811,0.0013702157884836197,-0.001532002817839384,-5.728006362915039e-05,0.000610102666541934,0.0012929304502904415,-0.000878145860042423,0.023962801,57.043552,Clouds
134907.841,-0.0002605076879262924,-0.0017045626882463694,-0.0013541579246520996,-0.0001266435720026493,0.0014879100490361452,-0.0029528511222451925,0.021536775,57.043552,Clouds
134907.871,0.000430242158472538,-0.0013699955306947231,-0.0012783408164978027,-0.001355609274469316,0.001890083309262991,0.0005385708063840866,0.031218786,57.043552,Clouds
134907.901,0.0001923711970448494,-0.0015632857102900743,-0.0012784600257873535,-0.0027551453094929457,0.0028819653671234846,-0.0016949358396232128,0.26767623,57.043552,Clouds
134907.931,0.0008556852117180824,-0.0017301994375884533,-0.00033283233642578125,-0.0008173424284905195,-0.00043065560748800635,0.0011830420698970556,0.3363322,57.043552,Clouds
134907.960,0.00027968455106019974,-0.001969635486602783,-0.0008666515350341797,0.0008278507739305496,0.00042345482506789267,0.0005959029658697546,0.32014826,57.043552,Clouds
134907.990,0.0008146809414029121,-0.00144643010571599,-0.0014159679412841797,0.0019415346905589104,-0.00014591070066671818,0.0014119655825197697,0.26699248,57.043552,Clouds
134908.020,0.0007412396371364594,-0.0012515394482761621,-0.0007296204566955566,0.003677899017930031,0.002070917282253504,-0.0003355593653395772,0.24295503,57.043552,Clouds
134908.050,-0.0002636462450027466,-0.0018330179154872894,-0.0010199546813964844,0.0021999706514179707,0.0013983126264065504,-0.0004837297019548714,0.2058677,57.043552,Clouds
134908.080,0.00015743635594844818,-0.001798916608095169,-0.000791013240814209,0.0018866078462451696,-0.00020459300139918923,-0.0025467693340033293,0.1914903,57.043552,Clouds
134908.110,0.0004037749022245407,-0.0015862672589719296,-0.000638425350189209,-0.00279748672619462,-0.0016536884941160679,0.000708538165781647,0.17728864,57.043552,Clouds
134908.140,0.0004684422165155411,-0.00218189787119627,-0.0003635883331298828,-0.0010254494845867157,0.0024179331958293915,-0.0012072683311998844,0.15369904,57.043552,Clouds
134908.169,-0.000170133076608181,-0.00177040696144104,-0.0006227493286132812,-0.00021343957632780075,-0.0012735800119116902,-0.0005454672500491142,0.14161614,57.043552,Clouds
134908.199,0.0003309464082121849,-0.001022573560476303,-0.0008058547973632812,0.001388865988701582,0.0013357345014810562,0.0019352404633536935,0.11889951,57.043552,Clouds
134908.229,0.0004114201292395592,-0.0015445663593709469,0.0002467036247253418,0.0026836202014237642,-0.0010034338338300586,-0.0015776432119309902,0.1101752,57.043552,Clouds
134908.259,0.0005323467776179314,-0.0018183398060500622,-0.0010656118392944336,-0.0031286627054214478,-0.0016758491983637214,-0.0018130040261894464,0.10088897,57.043552,Clouds
134908.289,-0.0005811955779790878,-0.0005817641504108906,-0.0006229877471923828,0.0018235265742987394,0.000907382695004344,0.0026356857270002365,0.09099502,57.043552,Clouds
134908.318,-0.00017015915364027023,-0.001148188952356577,-0.0005620121955871582,0.0017960681580007076,-3.0005918233655393e-05,0.00047797459410503507,0.086012766,57.043552,Clouds
134908.349,0.0009818114340305328,-0.0010547763668000698,0.00026214122772216797,-0.0010575694032013416,0.0012984219938516617,-0.0021118842996656895,0.07723225,57.043552,Clouds
134908.378,0.0006201155483722687,-0.0016835341230034828,-0.00018018484115600586,0.0025111702270805836,0.0034290854819118977,-0.0007080647628754377,0.0754965,57.043552,Clouds
134908.408,0.0012477394193410873,-0.0013860310427844524,-0.0007908344268798828,-0.0006750959437340498,-0.0024098698049783707,-0.000785309704951942,0.06824376,57.043552,Clouds
134908.438,0.00045323558151721954,-0.0014116563834249973,-0.001400768756866455,-0.0009214971214532852,-0.0013932047877460718,-0.0007936398615129292,0.05672841,57.043552,Clouds
134908.468,0.0012589674443006516,-0.001394505612552166,-0.0006988644599914551,2.575037069618702e-05,0.00034547538962215185,-0.0009249013382941484,0.052930906,57.043552,Clouds
134908.498,-0.0004046959802508354,-0.001737082377076149,0.00035393238067626953,0.0024498729035258293,0.0006549733225256205,-0.0002453702036291361,0.046612788,57.043552,Clouds
134908.527,-0.0002956092357635498,-0.0007603582926094532,-0.0011420249938964844,0.0012250863946974277,-0.0002171526721213013,0.0004360337625257671,0.04534615,57.043552,Clouds
134908.557,-0.0005459245294332504,-0.0008148588240146637,-0.000623166561126709,0.001993044512346387,-0.0020430616568773985,-0.0005857249489054084,0.04246684,57.043552,Clouds
134908.587,-0.0006083603948354721,-0.0016472944989800453,0.00027686357498168945,7.820501923561096e-05,-0.0012367167510092258,0.0009650236461311579,0.039659962,57.043552,Clouds
134908.617,0.0003874208778142929,-0.0011029615998268127,1.7642974853515625e-05,-0.00045390520244836807,0.001791256363503635,-0.00027458113618195057,0.03797961,57.043552,Clouds
134908.647,0.0003647720441222191,-0.0011771894060075283,-0.00034874677658081055,0.0026041604578495026,-0.00010606977593852207,-0.001743305940181017,0.034627095,57.043552,Clouds
134908.676,0.000715203583240509,-0.0009752735495567322,-2.8312206268310547e-05,-0.00014907470904290676,-0.00022154916950967163,-0.0017510403413325548,0.034104124,57.043552,Clouds
134908.706,0.0005780924111604691,-0.0012715165503323078,0.00012427568435668945,0.0006382064893841743,-0.0016742132138460875,-0.0005090633640065789,0.032897033,57.043552,Clouds
134908.736,0.0005830982699990273,-0.0014096880331635475,-0.0007760524749755859,-0.0012367379385977983,-0.001117829466238618,-0.0005502229905687273,0.040718444,57.043552,Clouds
134908.766,0.0002233106642961502,-0.0010322937741875648,-0.0007912516593933105,0.00029676291160285473,0.0006853012600913644,-0.0014961964916437864,0.03789082,57.043552,Clouds
134908.796,0.0004281671717762947,-0.0014004469849169254,-0.0006694793701171875,0.00149392313323915,0.002815867541357875,0.0003261439851485193,0.031905495,57.043552,Clouds
134908.826,0.0005528014153242111,-0.0018973727710545063,-0.0009134411811828613,0.0021537363063544035,-0.0010202302364632487,0.001705450238659978,0.029493712,57.043552,Clouds
134908.855,0.0006597647443413734,-0.0013583418913185596,-0.0007000565528869629,0.0016043088398873806,-0.001387184951454401,0.0008251718245446682,0.027184801,57.043552,Clouds
134908.885,7.553771138191223e-05,-0.0005764351226389408,-0.00025779008865356445,0.00037295976653695107,0.0001596434012753889,0.002450568601489067,0.02455345,57.043552,Clouds
134908.915,0.00028189457952976227,-0.0007996349595487118,-4.38690185546875e-05,0.002109837718307972,-0.0008635108824819326,-0.000251934805419296,0.035563502,57.043552,Clouds
134908.945,0.0002305731177330017,-0.000966113992035389,-0.0016763806343078613,-0.0009747794829308987,0.0006139439065009356,-0.002109081484377384,0.04338507,57.043552,Clouds
134908.975,0.00031547900289297104,-0.0017398102208971977,-0.0007001757621765137,0.002376109827309847,0.002988581545650959,0.00041712672100402415,0.040634748,57.043552,Clouds
134909.005,0.0015239706262946129,-0.000532262958586216,-0.0018140673637390137,-0.0028399312868714333,-0.0011838553473353386,0.0013316981494426727,0.03830431,57.043552,Clouds
134909.035,0.0014704754576086998,-0.0005795448087155819,-0.0008373260498046875,0.0011274293065071106,-0.0007051604334264994,-0.00011269690003246069,0.03366393,57.043552,Clouds
134909.064,0.0006203623488545418,-0.0007472294382750988,-0.00034880638122558594,-0.0002850424498319626,-3.6661120248027146e-05,-0.0006611972930841148,0.032603353,57.043552,Clouds
134909.094,0.0008265022188425064,-0.00042407121509313583,-0.0015848278999328613,0.002184370532631874,0.0008034927886910737,-0.001053303712978959,0.027979998,57.043552,Clouds
134909.124,-2.2386200726032257e-05,-0.0004440946504473686,-0.0010663270950317383,0.001737344777211547,0.0011858214857056737,-0.0001438645413145423,0.02633429,57.043552,Clouds
134909.154,0.0007867142558097839,-0.0011897757649421692,-0.001585841178894043,0.000517343170940876,0.0015998112503439188,0.0012770233443006873,0.02543163,57.043552,Clouds
134909.184,2.7949921786785126e-05,-0.0012609316036105156,-0.00019699335098266602,0.004582754801958799,0.0015257720369845629,0.0003050396335311234,0.023270126,57.043552,Clouds
134909.213,-8.636340498924255e-05,-0.0007968279533088207,-2.944469451904297e-05,-0.0013013134011998773,-0.00015875256212893873,0.00025422137696295977,0.021250246,57.043552,Clouds
134909.243,0.001408441923558712,-0.00015127332881093025,-0.000700831413269043,0.001246103784069419,-0.00035784728243015707,0.000742098840419203,0.018352777,57.043552,Clouds
134909.273,0.0006655650213360786,-0.0009922548197209835,0.0007028579711914062,-0.0004960666410624981,0.00022405317577067763,0.0020472481846809387,0.017352512,57.043552,Clouds
134909.303,4.937686026096344e-05,-0.000814338680356741,-0.00027370452880859375,-0.001409668941050768,-0.0007121136877685785,-9.162444621324539e-05,0.01630905,57.043552,Clouds
134909.333,0.0006163632497191429,-0.000673806294798851,-0.0004876255989074707,0.004333339631557465,0.00223338371142745,0.0013674602378159761,0.0144767035,57.043552,Clouds
134909.362,0.0002096518874168396,-0.0004445700906217098,-0.0005184412002563477,0.0009824475273489952,0.002038058824837208,-0.0002473864587955177,0.023392845,57.043552,Clouds
134909.393,-0.000380856916308403,-0.002026068978011608,-0.0015868544578552246,0.0029376158490777016,-0.0004943557432852685,0.00013688456965610385,0.026877921,57.043552,Clouds
134909.422,0.0001346152275800705,-0.0006544315256178379,-0.00047326087951660156,-0.0024620972108095884,0.002448913175612688,-0.002507708966732025,0.04133565,57.043552,Clouds
134909.452,0.0006084274500608444,-0.0015338240191340446,-0.000854790210723877,-0.0019890028052031994,-0.00027875223895534873,0.0014459018129855394,0.05634046,57.043552,Clouds
134909.482,0.0005104457959532738,-0.0007797349244356155,-0.0011906623840332031,-0.0005413990002125502,0.0022020854521542788,-0.0017903356347233057,0.07118377,57.043552,Clouds
134909.512,-0.000141998752951622,-0.001108046155422926,-0.0007784366607666016,-0.0019438700983300805,0.0010588022414594889,-0.0005560777499340475,0.068313874,57.043552,Clouds
134909.542,0.0005421647801995277,-0.0007533966563642025,-0.0013126730918884277,-0.00019506807439029217,0.0003210807335563004,0.002937555545940995,0.06038981,57.043552,Clouds
134909.571,0.000493103638291359,-0.0011214730329811573,-0.0006111264228820801,0.0002121154684573412,0.0005277842283248901,-0.00010929338168352842,0.05758669,57.043552,Clouds
134909.601,-0.0006429310888051987,-0.0005541718564927578,-0.0005959868431091309,0.0003351876512169838,0.0006048619979992509,-0.00028256350196897984,0.052329108,57.043552,Clouds
134909.631,-0.00022727623581886292,-0.0012510963715612888,-0.001511693000793457,0.0018847528845071793,0.0031606904231011868,-0.0015522136818617582,0.043965045,57.043552,Clouds
134909.661,3.0238181352615356e-05,-0.0006504054181277752,0.0004869699478149414,-0.0010263812728226185,0.0018283816752955317,-0.0012578567257151008,0.040156532,57.043552,Clouds
134909.691,-8.717924356460571e-05,-0.0010537724010646343,-0.0011463761329650879,0.0009282175451517105,-0.0010520387440919876,-0.00012721872190013528,0.034093544,57.043552,Clouds
134909.721,0.0001494772732257843,-0.0018480061553418636,-0.0007342100143432617,-0.00015509617514908314,-0.002756548812612891,0.00026603363221511245,0.031350832,57.043552,Clouds
134909.750,0.00043208058923482895,-0.0016045733354985714,-0.0008254647254943848,-0.0020481511019170284,-0.0007084258832037449,-0.00034847325878217816,0.029001325,57.043552,Clouds
134909.780,0.0008672485128045082,-0.0007989746518433094,-0.0001697540283203125,-0.0003890360239893198,0.002209258731454611,0.0023557404056191444,0.073432304,57.043552,Clouds
134909.810,0.0010246671736240387,-0.0005644829943776131,1.2934207916259766e-05,0.000639669131487608,-0.00021206712699495256,-0.0013898082543164492,0.10888559,57.043552,Clouds
134909.840,0.000526166521012783,-0.00045631686225533485,-0.0010858774185180664,0.0015592840500175953,0.00024960748851299286,0.002204321790486574,0.096803136,57.043552,Clouds
134909.869,0.0005357833579182625,-0.00042206747457385063,-0.0002009272575378418,0.0014892022591084242,-0.0004916805773973465,0.0017826560651883483,0.08840369,57.043552,Clouds
134909.899,0.0001168232411146164,-0.000504715833812952,0.0001958012580871582,-0.0004939166828989983,0.0015194688457995653,-0.0024437857791781425,0.08045355,57.043552,Clouds
134909.929,0.0011825934052467346,-0.001560836099088192,-0.007921874523162842,0.0023856856860220432,-0.0012843036092817783,-0.0001400753972120583,0.06763784,57.043552,Clouds
134909.959,0.00028746575117111206,-0.0015312149189412594,0.0032626986503601074,-0.0034464355558156967,-0.002591205295175314,0.000697739131283015,0.06181304,57.043552,Clouds
134909.989,0.0002191700041294098,-0.00042284559458494186,0.004651129245758057,-0.0007404275238513947,0.0006313716294243932,-0.00013165146810933948,0.05802815,57.043552,Clouds
134910.019,0.0005005151033401489,0.0011155977845191956,-0.003253042697906494,0.0019864437635987997,0.0021344483830034733,0.0022390212398022413,0.054184556,57.043552,Clouds
134910.048,0.00041477102786302567,-0.002346572931855917,-0.00415349006652832,0.0016435871366411448,-0.0021783828269690275,-0.0014448811998590827,0.053303692,57.043552,Clouds
134910.078,7.040891796350479e-05,-0.0018205083906650543,0.002270340919494629,-0.00015970435924828053,0.00013358455908019096,0.0014657264109700918,0.04662836,57.043552,Clouds
134910.108,-0.00017283111810684204,0.0009221117943525314,0.002240121364593506,-0.003893838031217456,0.00020917302754241973,0.001154308090917766,0.0444147,57.043552,Clouds