Timestamp,AccelX,AccelY,AccelZ,GyroX,GyroY,GyroZ,AudioLevel,LightLevel,Weather
134751.967,-0.03463821858167648,0.006659448146820068,0.02426314353942871,-0.1315939873456955,-0.0880313292145729,-0.011912228539586067,0.07218032,57.043552,Clouds
134751.997,-0.0043757157400250435,-0.008040189743041992,-0.001660466194152832,-0.01123747881501913,-0.02136955037713051,-0.04207316413521767,0.06602515,57.043552,Clouds
134752.027,0.005222845822572708,-0.0019369721412658691,-0.007266104221343994,-0.09965679049491882,-0.06033593788743019,-0.0447128601372242,0.053723868,57.043552,Clouds
134752.057,0.008625615388154984,0.0031884312629699707,0.019976437091827393,-0.3125085234642029,-0.06626991182565689,-0.09080927073955536,0.04927904,57.043552,Clouds
134752.087,0.0006583202630281448,0.012489616870880127,0.030351758003234863,-0.5429979562759399,-0.16272392868995667,-0.061406902968883514,0.045420107,57.043552,Clouds
134752.117,0.012412992306053638,0.009249389171600342,0.0064539313316345215,-0.4194676876068115,-0.2351958304643631,-0.021796271204948425,0.043498985,57.043552,Clouds
134752.147,0.010899675078690052,0.02749723196029663,-0.009279608726501465,-0.12814372777938843,-0.08109812438488007,-0.034335341304540634,0.040652577,57.043552,Clouds
134752.177,-0.012274596840143204,0.03949940204620361,-0.022166132926940918,0.09883765131235123,-0.030305052176117897,0.025773989036679268,0.036556106,57.043552,Clouds
134752.207,0.006713596638292074,0.010246694087982178,-0.04274451732635498,0.20708273351192474,-0.1099446639418602,0.025216469541192055,0.03531659,57.043552,Clouds
134752.237,0.0022175353951752186,0.003074169158935547,-0.04005163908004761,0.09079393744468689,-0.007450468372553587,0.010826652869582176,0.033708785,57.043552,Clouds
134752.267,0.013119532726705074,0.00421750545501709,-0.022858023643493652,-0.06047893688082695,0.03588003292679787,0.038403529673814774,0.029227806,57.043552,Clouds
134752.296,0.014721939340233803,0.01228487491607666,0.00238722562789917,-0.03380681946873665,-0.01973065361380577,0.06810911744832993,0.028939808,57.043552,Clouds
134752.326,0.011624742299318314,-0.000409543514251709,-0.02429068088531494,-0.006888669915497303,-0.020479589700698853,0.03131014108657837,0.027519166,57.043552,Clouds
134752.355,-0.016281474381685257,0.007684290409088135,-0.010516881942749023,0.03880976140499115,0.1440645307302475,-0.02745184861123562,0.027351158,57.043552,Clouds
134752.385,-0.00795350968837738,0.005600392818450928,-0.009105145931243896,0.1305854767560959,0.06585317105054855,0.02205781452357769,0.037822686,57.043552,Clouds
134752.415,0.01780112087726593,-0.003515958786010742,-0.023061156272888184,0.06745212525129318,-0.11336317658424377,0.06388448923826218,0.032691568,57.043552,Clouds
134752.445,-0.011705826967954636,0.007939815521240234,-0.020392894744873047,0.1107635572552681,0.17074109613895416,-0.03824701905250549,0.030974478,57.043552,Clouds
134752.475,-0.013782912865281105,0.0010026097297668457,-0.022267401218414307,0.1120607852935791,0.16937895119190216,-0.08580883592367172,0.026937008,57.043552,Clouds
134752.505,0.0038530859164893627,-0.007252514362335205,-0.014656543731689453,-0.02236928418278694,-0.11212442815303802,-0.05907120928168297,0.024771197,57.043552,Clouds
134752.534,0.0031476099975407124,0.006945252418518066,0.0031929612159729004,-0.05976805463433266,-0.022635845467448235,-0.005099224857985973,0.022998428,57.043552,Clouds
134752.565,0.011783869937062263,0.009161710739135742,-0.002137899398803711,-0.020262718200683594,0.03908207640051842,0.039848241955041885,0.020309756,57.043552,Clouds
134752.594,-0.0012410837225615978,0.020508766174316406,0.011037349700927734,0.13737155497074127,0.062479060143232346,0.02597670629620552,0.019731568,57.043552,Clouds
134752.624,-0.0024389540776610374,0.0031821131706237793,-0.013339638710021973,0.2216886579990387,-0.07579809427261353,-0.017759554088115692,0.017130679,57.043552,Clouds
134752.654,-0.004321004264056683,0.010045826435089111,-0.008973240852355957,0.10442735999822617,-0.051370322704315186,-0.03548526391386986,0.01627229,57.043552,Clouds
134752.684,0.005320623982697725,0.011090576648712158,0.00781714916229248,-0.08554227650165558,0.07450170069932938,0.021319886669516563,0.015349982,57.043552,Clouds
134752.714,0.012553546577692032,0.0048822760581970215,0.022995829582214355,-0.21601808071136475,-0.06636150926351547,0.06171989068388939,0.014176208,57.043552,Clouds
134752.743,0.01095418818295002,0.009782373905181885,0.0035706162452697754,-0.022778164595365524,-0.10513219237327576,0.03136752173304558,0.039371043,57.043552,Clouds
134752.773,-0.0016663119895383716,0.00942230224609375,-0.030499815940856934,0.054069582372903824,-0.005402355920523405,-0.006783380173146725,0.052181527,57.043552,Clouds
134752.803,-0.006010313984006643,0.009972333908081055,-0.01950395107269287,-0.07232804596424103,0.012604465708136559,-0.02002403885126114,0.05004356,57.043552,Clouds
134752.833,0.011109143495559692,0.011228680610656738,-0.02727043628692627,-0.052610911428928375,-0.05156925693154335,0.028168343007564545,0.047477912,57.043552,Clouds
134752.863,0.005428283009678125,0.016752004623413086,-0.013092041015625,0.05674862116575241,0.14911846816539764,-0.00036137766437605023,0.052980255,57.043552,Clouds
134752.893,9.045470505952835e-06,0.011771917343139648,-0.011590182781219482,0.06484295427799225,0.06873787194490433,0.02696918323636055,0.050345972,57.043552,Clouds
134752.923,0.0033097367268055677,0.013475120067596436,-0.0014801025390625,0.026719268411397934,-0.061986856162548065,0.06307391822338104,0.044251867,57.043552,Clouds
134752.952,-0.005490658804774284,0.01254117488861084,0.004868805408477783,-0.03907366842031479,0.057694993913173676,0.02481205202639103,0.041000873,57.043552,Clouds
134752.982,-0.0069472165778279305,0.011139273643493652,0.003215193748474121,-0.07291018217802048,0.0568421296775341,0.0176576916128397,0.03720597,57.043552,Clouds
134753.012,-0.002280185464769602,0.01161271333694458,0.005374431610107422,0.015517160296440125,-0.0736636146903038,0.0017504766583442688,0.032021623,57.043552,Clouds
134753.042,-0.009155917912721634,0.0017458200454711914,-0.007252931594848633,-0.0324544832110405,-0.09972728788852692,-0.025098241865634918,0.029429566,57.043552,Clouds
134753.072,0.001539122313261032,0.002743244171142578,-0.017769455909729004,-0.11595627665519714,-0.05358613654971123,-0.004336593206971884,0.026556844,57.043552,Clouds
134753.102,0.0031884072814136744,0.007155954837799072,-0.019576728343963623,-0.07172080874443054,0.007501211017370224,0.010136126540601254,0.025429605,57.043552,Clouds
134753.131,0.005587590858340263,0.0036576390266418457,-0.03295612335205078,0.026322996243834496,-0.023541389033198357,-0.01686793379485607,0.02454824,57.043552,Clouds
134753.161,0.0065634665079414845,0.008174717426300049,-0.015477776527404785,0.04000910371541977,0.03561898693442345,-0.05068975314497948,0.021785472,57.043552,Clouds
134753.191,-0.0006341788684949279,-0.003198087215423584,-0.02435058355331421,0.05073930323123932,0.0890299454331398,-0.02666989341378212,0.022696141,57.043552,Clouds
134753.220,-0.0023529203608632088,-0.00022345781326293945,-0.012893438339233398,0.16636908054351807,0.10185843706130981,-0.0818285346031189,0.03347167,57.043552,Clouds
134753.250,0.007866811007261276,0.005148112773895264,-0.011018097400665283,0.14613939821720123,-0.026755042374134064,-0.009943358600139618,0.03111961,57.043552,Clouds
134753.280,0.004015982151031494,0.010426521301269531,0.0004583001136779785,-0.02484757825732231,-0.04725508391857147,0.08644343912601471,0.030646292,57.043552,Clouds
134753.310,-2.556690014898777e-05,0.008769750595092773,0.01387333869934082,-0.1819046586751938,0.03227877989411354,0.029994860291481018,0.026484324,57.043552,Clouds
134753.340,-0.0069947694428265095,0.007219135761260986,-0.005300164222717285,-0.1030418798327446,-0.008288238197565079,-0.046937815845012665,0.024839811,57.043552,Clouds
134753.370,-0.004164751619100571,0.004094123840332031,-0.01748025417327881,0.10098135471343994,-0.06329672783613205,-0.0638444796204567,0.022047082,57.043552,Clouds
134753.400,-0.0063818395137786865,0.010943949222564697,-0.02508610486984253,0.08391976356506348,-0.0707254409790039,0.002371787326410413,0.020808745,57.043552,Clouds
134753.430,0.0024641351774334908,0.007606625556945801,-0.015388131141662598,-0.0589045025408268,-0.014753255993127823,0.017468715086579323,0.02160388,57.043552,Clouds
134753.460,0.0022361818701028824,0.0047716498374938965,-0.01269066333770752,-0.1234016939997673,-0.013824590481817722,-0.03726891428232193,0.019686759,57.043552,Clouds
134753.490,0.013490715995430946,0.004996120929718018,-0.02056896686553955,0.0154270613566041,-0.10255912691354752,-0.08876975625753403,0.018964306,57.043552,Clouds
134753.519,0.009022788144648075,0.022303342819213867,-0.02185952663421631,0.066735178232193,-0.032455820590257645,-0.014982967637479305,0.019862568,57.043552,Clouds
134753.549,0.011919908225536346,0.013137578964233398,-0.011936366558074951,0.010555898770689964,0.08358113467693329,0.05522875860333443,0.019240819,57.043552,Clouds
134753.579,0.01371447928249836,0.005036354064941406,-0.0015099644660949707,-0.05469962954521179,0.03440985828638077,0.024065015837550163,0.018614417,57.043552,Clouds
134753.609,0.0025096796452999115,0.0039157867431640625,0.009494602680206299,-0.05815598741173744,-0.0629279762506485,0.0020082970149815083,0.017031701,57.043552,Clouds
134753.638,0.0028832589741796255,0.008147478103637695,0.01279515027999878,-0.072111576795578,-0.0739300549030304,0.06159196048974991,0.016237175,57.043552,Clouds
134753.669,-0.006573068909347057,0.005255520343780518,0.0001526474952697754,-0.06245895102620125,0.0026020046789199114,0.05671464651823044,0.015084153,57.043552,Clouds
134753.698,-0.0037755900993943214,0.0014948248863220215,-0.014537572860717773,-0.06595733761787415,0.03489140421152115,-0.03627604991197586,0.01607613,57.043552,Clouds
134753.728,-0.008354036137461662,0.007208883762359619,-0.020729005336761475,-0.02479652315378189,0.03109724633395672,-0.013382717035710812,0.015838096,57.043552,Clouds
134753.758,-0.00846085511147976,0.005460858345031738,-0.024418354034423828,0.02325436845421791,0.044439539313316345,0.006606587208807468,0.014735047,57.043552,Clouds
134753.788,0.005769667681306601,0.001661837100982666,-0.009580671787261963,0.11283894628286362,0.05407407879829407,-0.025438658893108368,0.025990205,57.043552,Clouds
134753.818,0.0012234783498570323,0.008406519889831543,-0.006910562515258789,0.07540449500083923,-0.003449060721322894,0.025574039667844772,0.02398449,57.043552,Clouds
134753.848,0.006549630779772997,0.0011600852012634277,-0.004577219486236572,-0.00252118450589478,-0.005418418440967798,0.03835698962211609,0.021961942,57.043552,Clouds
134753.877,0.0043219514191150665,0.0030715465545654297,-0.0018572211265563965,-0.07070620357990265,0.014822596684098244,-0.00964417401701212,0.020667698,57.043552,Clouds
134753.907,-0.0020882468670606613,0.00543743371963501,0.006021678447723389,0.043342817574739456,0.033431895077228546,-0.04266413673758507,0.01860111,57.043552,Clouds
134753.937,-0.007529671303927898,0.006976783275604248,-0.007074117660522461,0.167413592338562,0.07907520234584808,-0.09255069494247437,0.017444478,57.043552,Clouds
134753.967,-0.003241242840886116,0.021599233150482178,-0.0028318166732788086,0.10525259375572205,0.04914815351366997,-0.05656016990542412,0.015973529,57.043552,Clouds
134753.997,0.01069074496626854,0.011705875396728516,-0.012932062149047852,-0.1207236796617508,-0.03296991065144539,0.051471609622240067,0.015371519,57.043552,Clouds
134754.026,0.010582085698843002,0.012293636798858643,-0.0010455846786499023,-0.11606918275356293,-0.02582435868680477,0.0667792335152626,0.031325053,57.043552,Clouds
134754.056,0.005780453328043222,0.013172745704650879,0.003758072853088379,0.00410555861890316,0.021556111052632332,0.014455575495958328,0.029531097,57.043552,Clouds
134754.086,0.007561611942946911,0.007997572422027588,-0.0052983760833740234,0.013916783966124058,-0.05041305720806122,0.014618557877838612,0.028480534,57.043552,Clouds
134754.116,-0.0016566996928304434,0.007514297962188721,-0.012184441089630127,-0.043690506368875504,-0.05521611496806145,0.02335285022854805,0.025700351,57.043552,Clouds
134754.146,-0.005945801734924316,-0.005071818828582764,-0.028914332389831543,-0.05912841111421585,0.033098235726356506,0.022309785708785057,0.025126752,57.043552,Clouds
134754.175,-0.009584520012140274,0.00041174888610839844,-0.017451584339141846,-0.017655646428465843,0.06114578992128372,-0.01695481687784195,0.023421925,57.043552,Clouds
134754.206,-0.001428491435945034,-0.0010612010955810547,-0.010752737522125244,0.0046720742247998714,0.02467668056488037,-0.06459230184555054,0.022568738,57.043552,Clouds
134754.236,-0.0018296996131539345,0.004829287528991699,-0.00868690013885498,0.029013805091381073,0.008280906826257706,-0.041680093854665756,0.022090983,57.043552,Clouds
134754.265,-0.002111123874783516,0.016179919242858887,-0.007691919803619385,0.013678617775440216,0.011772068217396736,-0.023400653153657913,0.01936191,57.043552,Clouds
134754.295,-0.0006920881569385529,0.021612942218780518,0.003127753734588623,-0.003103462513536215,0.052552010864019394,-0.013808440417051315,0.01958381,57.043552,Clouds
134754.325,0.0020746449008584023,0.015136480331420898,0.00037682056427001953,0.013126552104949951,-0.017102040350437164,0.005264671985059977,0.018493613,57.043552,Clouds
134754.355,0.008019622415304184,0.008509278297424316,0.0015845894813537598,0.020652340725064278,-0.03812989965081215,-0.01056085154414177,0.017297657,57.043552,Clouds
134754.385,0.01018768735229969,0.008396148681640625,-0.008474111557006836,-0.08643122017383575,-0.0053332215175032616,0.047239311039447784,0.016753722,57.043552,Clouds
134754.414,0.008447801694273949,0.003077089786529541,-0.00961989164352417,-0.09753277152776718,0.08043146878480911,0.05115513503551483,0.016413528,57.043552,Clouds
134754.444,0.005652600899338722,-0.011551856994628906,-0.0227167010307312,-0.038236331194639206,-0.03223380446434021,0.02614249661564827,0.016204303,57.043552,Clouds
134754.474,0.0036936835385859013,-0.005207419395446777,-0.015497326850891113,0.06613222509622574,-0.06558674573898315,-0.02134493924677372,0.022866208,57.043552,Clouds
134754.504,0.010562922805547714,-0.00241774320602417,-0.022748112678527832,0.030587952584028244,0.012087823823094368,0.017529472708702087,0.021383168,57.043552,Clouds
134754.534,0.002344672568142414,0.0010702013969421387,-0.016562461853027344,-0.02600235864520073,0.03699865937232971,0.0509369894862175,0.019969124,57.043552,Clouds
134754.564,0.0034086941741406918,-0.004502773284912109,-0.007562220096588135,0.026062289252877235,-0.002728150226175785,-0.02779708057641983,0.026890334,57.043552,Clouds
134754.593,0.003166007809340954,-0.001334547996520996,-0.013989746570587158,0.021772924810647964,-0.027568096294999123,-0.038465388119220734,0.025534187,57.043552,Clouds
134754.623,0.0048784832470119,0.016129374504089355,-0.007676184177398682,0.005612156353890896,0.0009925459744408727,0.029723837971687317,0.024028119,57.043552,Clouds
134754.653,0.00020516477525234222,0.01214611530303955,0.002931535243988037,0.05390436202287674,-0.006075867917388678,0.02099742740392685,0.030406106,57.043552,Clouds
134754.683,0.013523981906473637,0.002780139446258545,-0.0019281506538391113,0.00630758423358202,-0.009055609814822674,-0.01396007090806961,0.028783636,57.043552,Clouds
134754.713,0.010737122967839241,0.015526115894317627,-0.006596386432647705,-0.08183159679174423,-0.03300142288208008,0.09591023623943329,0.028437734,57.043552,Clouds
134754.742,0.0030463128350675106,0.009554862976074219,-0.015055656433105469,-0.012371237389743328,-0.06032158434391022,0.13446968793869019,0.027796447,57.043552,Clouds
134754.772,-0.0017351389396935701,0.008132338523864746,-0.01531994342803955,0.12080323696136475,-0.0006448832573369145,0.05305895581841469,0.026459299,57.043552,Clouds
134754.802,-0.00904921442270279,0.006674587726593018,-0.00604856014251709,0.07726918160915375,0.056434933096170425,0.014228344894945621,0.028556528,57.043552,Clouds
134754.832,0.002864635782316327,0.001037895679473877,0.004707753658294678,-0.020057404413819313,-0.0310394037514925,0.019999448210000992,0.028247155,57.043552,Clouds
134754.862,8.959276601672173e-05,0.009699463844299316,0.003284931182861328,-0.0117268655449152,-0.05118420720100403,0.04558166489005089,0.024106178,57.043552,Clouds
134754.892,-0.004795003682374954,0.010483086109161377,0.005936324596405029,0.0032315771095454693,0.047889553010463715,-0.017648620530962944,0.02253794,57.043552,Clouds
134754.921,-0.009218492545187473,0.002094089984893799,-0.002079904079437256,-0.02028011903166771,-0.012899152934551239,-0.03561631962656975,0.027667116,57.043552,Clouds
134754.951,-0.0030153165571391582,0.005348563194274902,-0.014858007431030273,0.010154198855161667,-0.07428846508264542,0.004230231046676636,0.025480155,57.043552,Clouds
134754.981,-0.004711640067398548,0.010302841663360596,-0.010488748550415039,0.03849407285451889,0.028695186600089073,0.006728248670697212,0.023761706,57.043552,Clouds
134755.011,-0.004665209911763668,0.0014610886573791504,-0.007901608943939209,-0.007095704786479473,0.05846927687525749,-0.03030841052532196,0.020550238,57.043552,Clouds
134755.041,-0.007811442017555237,0.0023802518844604492,0.001344144344329834,-0.030619779601693153,0.02447028085589409,-0.045606017112731934,0.019000309,57.043552,Clouds
134755.071,0.00012480025179684162,0.006808042526245117,0.0016692280769348145,-0.05261271819472313,-0.06626316159963608,0.0020058611407876015,0.018022796,57.043552,Clouds
134755.101,0.00022757193073630333,0.007750988006591797,-0.015569150447845459,0.008125267922878265,-0.02170274592936039,0.027048002928495407,0.016345024,57.043552,Clouds
134755.130,-0.0047077941708266735,0.00784522294998169,-0.012176513671875,0.07281968742609024,0.03984309360384941,-0.01454357523471117,0.015812807,57.043552,Clouds
134755.160,-0.007078568451106548,0.0019612908363342285,-0.009616732597351074,-0.03063894249498844,0.0018440575804561377,-0.02396932803094387,0.043041904,57.043552,Clouds
134755.190,0.0026559955440461636,0.0008704066276550293,-0.003143906593322754,-0.06787683814764023,-0.021358825266361237,-3.635685425251722e-05,0.040495586,57.043552,Clouds
134755.220,-0.004681704565882683,0.0038632750511169434,-0.013515949249267578,0.016032453626394272,0.01172853633761406,-0.0004942267551086843,0.037594143,57.043552,Clouds
134755.250,0.004118769429624081,0.007008254528045654,-0.00986945629119873,0.0388093963265419,0.024307720363140106,-0.02615547925233841,0.03392581,57.043552,Clouds
134755.280,0.006607901770621538,0.0015692710876464844,-0.009213924407958984,-0.04431574419140816,-0.00795033574104309,-0.008286862634122372,0.031215949,57.043552,Clouds
134755.309,0.0008748271502554417,0.005494415760040283,-0.013467550277709961,-0.0007756098639219999,0.0018438153201714158,0.009565697982907295,0.029924491,57.043552,Clouds
134755.339,0.0023087766021490097,0.013011753559112549,0.003054499626159668,0.08605242520570755,0.026269037276506424,-0.010970027185976505,0.028623948,57.043552,Clouds
134755.369,0.0028598587960004807,0.009796977043151855,-0.0028902292251586914,-0.010223803110420704,-0.03771427273750305,0.0010728378547355533,0.028381087,57.043552,Clouds
134755.399,0.0001454481389373541,0.011516392230987549,-0.01000988483428955,-0.06711538136005402,-0.012175838463008404,0.02208712138235569,0.032569192,57.043552,Clouds
134755.429,0.00012116576544940472,0.008505582809448242,-0.006688594818115234,-0.04327048361301422,0.04976643621921539,0.001706602517515421,0.03220711,57.043552,Clouds
134755.458,-0.002101771766319871,-0.0007497668266296387,-0.005632877349853516,0.012301165610551834,0.009843775071203709,-0.021049214527010918,0.07787006,57.043552,Clouds
134755.488,-0.0012762723490595818,0.00170135498046875,-0.013495802879333496,-0.018163073807954788,-0.023621447384357452,-0.017110414803028107,0.1132609,57.043552,Clouds
134755.518,-0.0010982531821355224,0.0031755566596984863,-0.01598942279815674,-0.03229300677776337,0.010208412073552608,-0.03615139052271843,0.10522498,57.043552,Clouds
134755.548,-0.0037637848872691393,0.003150045871734619,-0.009990811347961426,0.0004373178817331791,0.03645090386271477,-0.04073468968272209,0.089019485,57.043552,Clouds
134755.578,0.0043718647211790085,0.005192875862121582,0.0001595020294189453,0.006532710045576096,-0.023811254650354385,-0.024564750492572784,0.08204574,57.043552,Clouds
134755.608,0.005368166137486696,0.007624506950378418,-0.0052214860916137695,-0.023097960278391838,-0.0677453875541687,-0.009065244346857071,0.06913342,57.043552,Clouds
134755.638,-0.0033570837695151567,0.0075244903564453125,-0.0073049068450927734,0.016528669744729996,0.04225926101207733,-0.057368528097867966,0.063039035,57.043552,Clouds
134755.667,0.005444192327558994,0.006587862968444824,-0.012938141822814941,-0.0023949327878654003,0.005288780201226473,-0.02678953856229782,0.05738013,57.043552,Clouds
134755.697,0.0060714962892234325,0.013746440410614014,-0.01201719045639038,0.001376007217913866,-0.05952965468168259,0.04098813608288765,0.04834634,57.043552,Clouds
134755.727,0.0036558250430971384,0.008334517478942871,-0.012661755084991455,-0.0272071436047554,0.007317902985960245,0.009255532175302505,0.044760533,57.043552,Clouds
134755.757,-0.0015325101558119059,0.0003209114074707031,-0.015040993690490723,-0.054366227239370346,0.04269963130354881,-0.008706478402018547,0.04209082,57.043552,Clouds
134755.787,-0.005810237955302,0.0008513927459716797,-0.02025449275970459,0.016615701839327812,0.008807373233139515,0.0215940922498703,0.03581104,57.043552,Clouds
134755.816,-0.0005367419216781855,-0.0011001825332641602,-0.01038217544555664,0.06161097437143326,-0.02620752900838852,0.011773763224482536,0.033846717,57.043552,Clouds
134755.846,-0.0016548403073102236,-0.005686759948730469,-0.010163724422454834,0.019476404413580894,0.03276926279067993,-0.03180323541164398,0.029275484,57.043552,Clouds
134755.876,0.003168584778904915,-0.0002818107604980469,-0.008348643779754639,0.007589324843138456,0.01751900278031826,-0.011271339841187,0.026877567,57.043552,Clouds
134755.906,0.004400865640491247,0.0030475854873657227,-0.004760324954986572,0.049753110855817795,-0.05551311746239662,0.028247971087694168,0.02513058,57.043552,Clouds
134755.936,0.005241836421191692,0.0008249282836914062,-0.006205558776855469,0.04123908281326294,-0.016464807093143463,0.0004573581099975854,0.022365255,57.043552,Clouds
134755.966,0.0038305153138935566,0.011536955833435059,0.0008394718170166016,0.0016636122018098831,0.0649496465921402,-0.040904201567173004,0.021081096,57.043552,Clouds
134755.996,0.010067799128592014,0.008719146251678467,0.0015630722045898438,-0.0018084747716784477,-0.01712854579091072,-0.002424347447231412,0.018729514,57.043552,Clouds
134756.025,0.010433857329189777,0.010932445526123047,-0.00446707010269165,0.00041936617344617844,-0.05441595986485481,0.021582933142781258,0.018188734,57.043552,Clouds
134756.055,0.007459932006895542,0.015484631061553955,-0.002173483371734619,0.006052865646779537,0.035863425582647324,-0.0034265611320734024,0.017367728,57.043552,Clouds
134756.084,0.008342321962118149,0.006800413131713867,-0.003137826919555664,-0.03263651579618454,0.015254369005560875,0.004105025436729193,0.015560708,57.043552,Clouds
134756.115,0.00801832601428032,0.0008462071418762207,-0.009633302688598633,-0.05461540445685387,-0.011476276442408562,0.019546469673514366,0.01490563,57.043552,Clouds
134756.144,0.005069366656243801,0.006698191165924072,-0.014605581760406494,-0.019439447671175003,0.05293716862797737,0.012583528645336628,0.013761977,57.043552,Clouds
134756.175,-0.000461359741166234,0.007918119430541992,-0.01043081283569336,0.045057058334350586,0.04879697039723396,0.023610267788171768,0.01861906,57.043552,Clouds
134756.204,0.004386696964502335,-0.005557239055633545,-0.017024576663970947,0.036645371466875076,-0.0010174366179853678,0.025399373844265938,0.017607085,57.043552,Clouds
134756.234,-0.004750058054924011,0.0011271834373474121,-0.005622565746307373,0.004405879881232977,0.04227018356323242,0.024990301579236984,0.018164147,57.043552,Clouds
134756.264,-0.0034483103081583977,0.004578232765197754,0.004395723342895508,-0.00451474217697978,0.015160507522523403,0.0340905487537384,0.016651923,57.043552,Clouds
134756.294,-0.00027128926012665033,-0.003457367420196533,-0.0060732364654541016,-0.01150260865688324,-0.055493198335170746,0.021546494215726852,0.023562292,57.043552,Clouds
134756.324,-0.008529995568096638,0.0034145116806030273,-0.010505378246307373,0.041263047605752945,-0.010097987949848175,0.01937512308359146,0.022541547,57.043552,Clouds
134756.354,-0.013598792254924774,-0.0006163716316223145,-0.003468751907348633,0.02990838512778282,0.06471147388219833,0.023817598819732666,0.02534383,57.043552,Clouds
134756.383,-0.0085035664960742,-0.013424575328826904,-0.0014796853065490723,0.004340773448348045,3.3675809390842915e-05,-0.020945126190781593,0.022392835,57.043552,Clouds
134756.413,-0.0017928921151906252,-0.007291078567504883,-0.0037096142768859863,0.032199934124946594,-0.02743658609688282,-0.02957882173359394,0.0330004,57.043552,Clouds
134756.443,-0.005145636387169361,-0.0017854571342468262,-0.0019383430480957031,0.013771881349384785,0.04417385905981064,-0.03701014071702957,0.028120777,57.043552,Clouds
134756.473,-0.0013914129231125116,0.002380847930908203,-0.0007674694061279297,0.013243832625448704,-0.00742393359541893,-0.06610891968011856,0.026336856,57.043552,Clouds
134756.503,0.010617125779390335,0.010589003562927246,-0.012166261672973633,0.016682367771863937,-0.028621261939406395,-0.0616341196000576,0.09996021,57.043552,Clouds
134756.532,0.01279320940375328,0.027476787567138672,-0.01552051305770874,0.009166982024908066,0.036092955619096756,-0.006482709664851427,0.108403526,57.043552,Clouds
134756.562,0.011081915348768234,0.024721205234527588,-0.010224521160125732,0.03138067573308945,0.014056049287319183,0.03713610768318176,0.1093274,57.043552,Clouds
134756.592,0.007936777547001839,0.020050764083862305,0.00034487247467041016,0.04185068607330322,-0.0278859194368124,0.028470424935221672,0.09471666,57.043552,Clouds
134756.622,-0.005700009874999523,0.012872695922851562,0.001476883888244629,-0.014502403326332569,0.010083884932100773,0.02612825483083725,0.090584,57.043552,Clouds
134756.652,-0.006022119894623756,0.00914466381072998,0.004356503486633301,-0.02070709504187107,0.012581774964928627,0.028036966919898987,0.08383115,57.043552,Clouds
134756.682,0.0009333036141470075,0.009094715118408203,0.001050412654876709,0.00249279523268342,-0.04191654548048973,0.033015333116054535,0.14231285,57.043552,Clouds
134756.711,-0.003452530363574624,0.013652622699737549,-0.006058216094970703,-0.01167014054954052,0.04339464753866196,0.03764462098479271,0.13683951,57.043552,Clouds
134756.741,-0.013689136132597923,0.006103157997131348,-0.004995822906494141,-0.01160569116473198,0.07208940386772156,0.012923828326165676,0.11698141,57.043552,Clouds
134756.771,-0.005046251229941845,-0.004074692726135254,0.0011205673217773438,-0.011360818520188332,-0.06653068959712982,-0.034498654305934906,0.11032644,57.043552,Clouds
134756.801,-0.0022185910493135452,-0.0006272792816162109,-0.014909207820892334,-0.04273010045289993,-0.03832784295082092,-0.03686823323369026,0.103292614,57.043552,Clouds
134756.831,-0.002089219633489847,-0.0013284683227539062,-0.019522905349731445,-0.06102105230093002,0.020953088998794556,0.017142970114946365,0.09130484,57.043552,Clouds
134756.861,0.002737661823630333,-0.0032158493995666504,-0.011407554149627686,0.05151893571019173,-0.012280450202524662,0.022442616522312164,0.085109636,57.043552,Clouds
134756.891,0.002817405853420496,-0.002324521541595459,-0.007949769496917725,0.05984636768698692,0.015151803381741047,-0.013140176422894001,0.16694748,57.043552,Clouds
134756.920,0.00411405973136425,-0.009023666381835938,-0.00479203462600708,-0.009033039212226868,-0.015427523292601109,-0.029245398938655853,0.15685982,57.043552,Clouds
134756.950,0.008768781088292599,-0.005723118782043457,-0.0116959810256958,-0.018481554463505745,0.018428698182106018,-0.04923773556947708,0.14968042,57.043552,Clouds
134756.980,-0.0015016780234873295,0.005588054656982422,-0.010599255561828613,0.03254951909184456,0.057106729596853256,-0.03920568525791168,0.13043116,57.043552,Clouds
134757.010,0.008963712491095066,0.004922091960906982,0.00024193525314331055,0.04061172530055046,-0.04573366791009903,-0.02265283279120922,0.118773386,57.043552,Clouds
134757.040,0.011814495548605919,0.014415204524993896,0.006131172180175781,-0.015110857784748077,-0.018664555624127388,-0.024072645232081413,0.105660126,57.043552,Clouds
134757.069,0.003028842154890299,0.016644418239593506,-0.003454864025115967,-0.0175723135471344,0.0419062003493309,-0.00957042071968317,0.10041972,57.043552,Clouds
134757.099,0.0031029735691845417,0.012080490589141846,-0.008609950542449951,-0.0016728388145565987,0.02693992666900158,0.0004982952959835529,0.09242738,57.043552,Clouds
134757.129,0.008334890007972717,0.012522995471954346,-0.00015091896057128906,0.0037543862126767635,-0.022549407556653023,0.03637415170669556,0.08043999,57.043552,Clouds
134757.159,0.006714534480124712,0.0016264915466308594,-0.008016228675842285,-0.01166056003421545,-0.02354023978114128,0.060682620853185654,0.07623396,57.043552,Clouds
134757.189,-0.005397981032729149,0.002596735954284668,-0.013412773609161377,-0.03287742659449577,0.007379652000963688,0.01803337037563324,0.08177749,57.043552,Clouds
134757.218,-0.004183629527688026,0.00042754411697387695,-0.01447230577468872,-0.016472898423671722,0.012767910957336426,-0.0022725830785930157,0.08212197,57.043552,Clouds
134757.248,0.0006925389170646667,-0.002015054225921631,-0.009232044219970703,0.020668543875217438,0.001749133807606995,-0.005173482466489077,0.076702684,57.043552,Clouds
134757.278,0.0022712210193276405,0.00011545419692993164,-0.005167245864868164,0.017732910811901093,0.017762375995516777,-0.02047799341380596,0.06889662,57.043552,Clouds
134757.308,0.0022977744229137897,0.00476682186126709,-0.0007483363151550293,0.012955203652381897,0.010142597369849682,-0.018177613615989685,0.06509739,57.043552,Clouds
134757.338,0.004647371359169483,0.00291520357131958,-0.010834574699401855,-0.02954265847802162,0.005486749578267336,-0.0005895872600376606,0.059795097,57.043552,Clouds
134757.368,0.0061703938990831375,0.007272660732269287,0.002675652503967285,-0.039595700800418854,-0.02383950911462307,-0.05872684717178345,0.056153957,57.043552,Clouds
134757.397,-0.0024579917080700397,-0.007005214691162109,0.004512965679168701,-0.0894613191485405,-0.1198853924870491,-0.15830254554748535,0.05123366,57.043552,Clouds
134757.427,-0.014297199435532093,0.010371923446655273,-0.0020702481269836426,-0.06973119080066681,0.0034991493448615074,-0.11225218325853348,0.12199892,57.043552,Clouds
134757.457,0.0004436541348695755,0.015364289283752441,-0.01548159122467041,-0.04334099963307381,0.040231700986623764,0.03455632925033569,0.14738202,57.043552,Clouds
134757.487,0.00022105500102043152,0.013520121574401855,-0.017290234565734863,0.03819559887051582,0.022493181750178337,0.06792162358760834,0.12929109,57.043552,Clouds
134757.517,0.003780304454267025,0.002403855323791504,-0.008395195007324219,0.06336676329374313,0.025691185146570206,0.004346763249486685,0.12694731,57.043552,Clouds
134757.546,0.0044479211792349815,0.0026754140853881836,-0.005917906761169434,-0.017464058473706245,0.012279434129595757,0.04534332454204559,0.1250601,57.043552,Clouds
134757.576,0.010094093158841133,-0.0006468892097473145,-0.008417606353759766,-0.006342275068163872,-0.03888370841741562,0.08834358304738998,0.11861627,57.043552,Clouds
134757.606,0.003238844219595194,0.001194775104522705,-0.01030057668685913,0.08671779185533524,-0.01434286404401064,0.07911263406276703,0.10964393,57.043552,Clouds
134757.636,-0.003989630378782749,0.0013824701309204102,-0.0039806365966796875,0.06182210519909859,0.016390394419431686,0.060863323509693146,0.09630819,57.043552,Clouds
134757.666,-0.004977682139724493,-0.0009491443634033203,0.0019382238388061523,-0.0037895366549491882,0.024598462507128716,0.004585218615829945,0.08751801,57.043552,Clouds
134757.696,0.0010696030221879482,0.001650094985961914,0.0020340681076049805,-0.03596148639917374,0.006508544087409973,-0.051377732306718826,0.079713225,57.043552,Clouds
134757.725,-0.007369921542704105,0.005466103553771973,-0.014672398567199707,-0.01851721666753292,-0.009076782502233982,-0.010382176376879215,0.073387615,57.043552,Clouds
134757.755,0.0038264384493231773,0.012067079544067383,-0.0050331950187683105,0.07838179916143417,0.025479303672909737,-0.017558105289936066,0.07328352,57.043552,Clouds
134757.785,0.0028333282098174095,0.015025913715362549,-0.002793550491333008,0.02611207216978073,0.046278007328510284,-0.01165037415921688,0.06796298,57.043552,Clouds
134757.815,0.0023292782716453075,0.006950259208679199,-0.001074075698852539,-0.08216460049152374,0.033967118710279465,-0.026742057874798775,0.062534876,57.043552,Clouds
134757.845,0.006334702484309673,0.009749293327331543,0.0017216205596923828,-0.03357289731502533,-0.014048716984689236,0.004676278214901686,0.06024934,57.043552,Clouds
134757.875,-0.0032212003134191036,0.0065767765045166016,-0.013652920722961426,0.024198589846491814,-0.0077798496931791306,0.049709636718034744,0.05208954,57.043552,Clouds
134757.905,-0.007826169021427631,-0.000523984432220459,-0.01896488666534424,0.018565436825156212,0.02753150835633278,0.023621125146746635,0.050512925,57.043552,Clouds
134757.934,-0.011137494817376137,-0.0011677742004394531,-0.012534022331237793,0.010300383903086185,0.03566187247633934,-0.0102861188352108,0.04402249,57.043552,Clouds
134757.964,-0.0070375665090978146,0.0009478330612182617,-0.003101944923400879,0.006037960760295391,0.015295428223907948,-0.016939226537942886,0.04163412,57.043552,Clouds
134757.994,-0.003337690606713295,0.00028908252716064453,-0.005075633525848389,0.05257343873381615,0.017598582431674004,-0.01737190969288349,0.038847703,57.043552,Clouds
134758.024,-0.0007018875330686569,0.001576542854309082,-0.0029286742210388184,0.05251524597406387,0.016619497910141945,-0.011623905971646309,0.03630461,57.043552,Clouds
134758.054,0.0005889134481549263,0.0010367631912231445,0.004433333873748779,-0.025575857609510422,-0.006097184494137764,-0.014832747168838978,0.033551376,57.043552,Clouds
134758.083,-0.001439821906387806,0.0001716017723083496,-0.004738748073577881,-0.0345095656812191,0.008751961402595043,-0.02768532559275627,0.04443803,57.043552,Clouds
134758.113,0.003593076951801777,0.004635512828826904,-0.009221315383911133,0.02606293559074402,0.0008692446281202137,-0.012805898673832417,0.04108407,57.043552,Clouds
134758.143,0.00047700759023427963,0.008407175540924072,-0.0036208629608154297,0.024752061814069748,0.022462155669927597,-0.00538379093632102,0.03957085,57.043552,Clouds
134758.173,0.00606155302375555,0.005325675010681152,0.0005438327789306641,-0.023117754608392715,-0.015385327860713005,-0.012071189470589161,0.050813332,57.043552,Clouds
134758.203,0.006228089332580566,0.007806360721588135,-0.0018677711486816406,-0.007193388417363167,0.004311566706746817,-0.009125655516982079,0.047537714,57.043552,Clouds
134758.233,0.006093367002904415,0.006312966346740723,-0.00781404972076416,0.001325199380517006,0.022912949323654175,-0.020012779161334038,0.042928927,57.043552,Clouds
134758.263,0.007671112194657326,0.008443295955657959,-0.006184816360473633,0.004284036345779896,-0.0002056869852822274,0.01626518741250038,0.0408199,57.043552,Clouds
134758.292,0.006602042354643345,0.005824387073516846,-0.011014103889465332,0.00237704673781991,0.011593049392104149,0.024078287184238434,0.037838355,57.043552,Clouds
134758.322,0.004510450176894665,0.0068926215171813965,-0.0053414106369018555,0.011768093332648277,0.013410981744527817,0.0008721633348613977,0.036306623,57.043552,Clouds
134758.352,0.006114249117672443,0.003466188907623291,-0.0019588470458984375,-0.029884178191423416,-0.0024039067793637514,0.01617898792028427,0.034989648,57.043552,Clouds
134758.382,0.00931437499821186,-0.003782033920288086,-0.0003254413604736328,-0.03900108486413956,-0.01609162800014019,0.052584704011678696,0.032859653,57.043552,Clouds
134758.412,-0.0011196369305253029,-0.004502832889556885,-0.008851945400238037,0.0006355731748044491,-0.032657742500305176,0.04142111912369728,0.0497067,57.043552,Clouds
134758.441,-0.012574990279972553,-0.003591477870941162,-0.016945362091064453,0.03460030257701874,0.012990360148251057,0.0005950297345407307,0.047961283,57.043552,Clouds
134758.471,-0.0047256359830498695,-0.00534135103225708,-0.01861727237701416,0.016251251101493835,0.03094453737139702,-0.029827285557985306,0.04138534,57.043552,Clouds
134758.501,-0.00044591445475816727,0.002235889434814453,-0.01040196418762207,0.003242849837988615,0.0013299803249537945,-0.01424342580139637,0.04035792,57.043552,Clouds
134758.531,0.003472680225968361,0.013048529624938965,-0.0014098286628723145,0.04273482412099838,0.017108483240008354,-0.006312045734375715,0.04109766,57.043552,Clouds
134758.561,0.012812000699341297,0.013415813446044922,0.010735571384429932,0.023196741938591003,0.013735909014940262,-0.00270630931481719,0.03983857,57.043552,Clouds
134758.591,0.017115266993641853,0.014808893203735352,0.014680206775665283,-0.03877801075577736,0.0005633836844936013,0.014878155663609505,0.03923367,57.043552,Clouds
134758.621,0.0156254842877388,0.015410304069519043,0.02008533477783203,-0.04704419896006584,-0.011284169740974903,0.07534968852996826,0.03787116,57.043552,Clouds
134758.651,0.014232389628887177,0.0015225410461425781,0.011134922504425049,-0.04391983896493912,-0.052234847098588943,0.09702616930007935,0.036814008,57.043552,Clouds
134758.680,0.012097843922674656,-0.008892059326171875,-0.01811695098876953,-0.044619545340538025,-0.08236432820558548,0.08082990348339081,0.036010716,57.043552,Clouds
134758.710,-0.00479314848780632,0.004011869430541992,-0.021419286727905273,0.0024416791275143623,0.042626429349184036,0.05011621117591858,0.034645624,57.043552,Clouds
134758.740,-0.00449527008458972,-0.00640338659286499,-0.025979220867156982,-0.006547960452735424,-0.016437483951449394,0.06205439940094948,0.042182963,57.043552,Clouds
134758.770,-0.004614580888301134,-0.009107351303100586,-0.03577631711959839,0.037087392061948776,-0.04299149662256241,0.02455403469502926,0.038026948,57.043552,Clouds
134758.799,-0.008882117457687855,0.0055849552154541016,-0.03156936168670654,0.10117211937904358,0.12579812109470367,-0.007148513104766607,0.0379744,57.043552,Clouds
134758.829,-0.0038519410882145166,0.007833003997802734,0.0008611083030700684,0.08020495623350143,0.09468088299036026,0.013230284675955772,0.033709563,57.043552,Clouds
134758.859,-0.0014631683006882668,0.002388179302215576,0.009409904479980469,0.05050397291779518,-0.05400613695383072,0.016995085403323174,0.0324898,57.043552,Clouds
134758.889,-0.011517157778143883,0.013699173927307129,0.007880985736846924,0.05923621729016304,0.00875009223818779,-0.003625375684350729,0.039642364,57.043552,Clouds
134758.919,-0.01497209444642067,0.014117896556854248,0.007282257080078125,-0.004979712422937155,0.09010663628578186,-0.010150937363505363,0.036968738,57.043552,Clouds
134758.949,-0.017114004120230675,0.00640261173248291,0.01717144250869751,0.006875541061162949,-0.002793331863358617,0.008909260854125023,0.035532396,57.043552,Clouds
134758.978,-0.009252974763512611,0.003326594829559326,0.00846928358078003,-0.025728672742843628,-0.04975907877087593,0.009205651469528675,0.030359663,57.043552,Clouds
134759.008,-0.00993161927908659,0.006047725677490234,-0.00034987926483154297,-0.053292252123355865,0.009148555807769299,0.0202089324593544,0.028907916,57.043552,Clouds
134759.038,-0.0046677556820213795,-0.0027527213096618652,-0.012049257755279541,-0.009379414841532707,-0.002627318724989891,0.0021119590383023024,0.028327417,57.043552,Clouds
134759.068,0.0007823962951079011,0.0030475258827209473,-0.006875276565551758,-0.0006468493957072496,-0.021034564822912216,-0.0009601440979167819,0.02467364,57.043552,Clouds
134759.097,0.003038246650248766,0.004041075706481934,-0.005748450756072998,-0.02515355870127678,-0.010125539265573025,0.0039021316915750504,0.02330231,57.043552,Clouds
134759.128,0.0031285842414945364,0.005906045436859131,0.0018233060836791992,-0.024385230615735054,0.01021377369761467,-0.027815254405140877,0.02320029,57.043552,Clouds
134759.157,0.0020468723960220814,0.005986511707305908,-0.00460207462310791,-0.07481842488050461,-0.024910591542720795,-0.011732859537005424,0.020867418,57.043552,Clouds
134759.187,0.0017659616423770785,0.006888329982757568,-0.008836150169372559,-0.010943298228085041,-0.005388868972659111,0.0022352177184075117,0.019822676,57.043552,Clouds
134759.217,0.0024562967009842396,0.0079612135887146,-0.012174606323242188,0.017912590876221657,0.013062795624136925,-0.03859364241361618,0.018535122,57.043552,Clouds
134759.247,0.004702306352555752,0.0074214935302734375,-0.008884787559509277,-0.029515516012907028,-0.01714635081589222,-0.03700336441397667,0.01711739,57.043552,Clouds
134759.277,0.004576042294502258,0.0056879520416259766,-0.009488463401794434,-0.0322582982480526,-0.007971539162099361,-0.008105341345071793,0.0209866,57.043552,Clouds
134759.307,0.0018060877919197083,0.00012499094009399414,-0.019288837909698486,-0.012849532067775726,0.046142932027578354,-0.017601490020751953,0.018956436,57.043552,Clouds
134759.336,0.00039717135950922966,0.003294646739959717,-0.007296264171600342,0.0015477710403501987,-0.002245815936475992,-0.016380026936531067,0.017788935,57.043552,Clouds
134759.366,-0.0016560251824557781,-0.0028467774391174316,-0.013216137886047363,-0.01524662971496582,-0.015094328671693802,-0.011226546950638294,0.01608662,57.043552,Clouds
134759.396,0.0016908352263271809,0.004714906215667725,-0.005553543567657471,-0.009180868044495583,0.04375382885336876,-0.01209284644573927,0.01504648,57.043552,Clouds
134759.426,-0.002716877032071352,0.00024646520614624023,-0.001558065414428711,0.019218765199184418,0.004196086898446083,-0.012446297332644463,0.019611137,57.043552,Clouds
134759.456,0.0003475514240562916,-0.0014830231666564941,-0.0047032833099365234,0.03225288540124893,-0.04721691831946373,0.0026789046823978424,0.01781033,57.043552,Clouds
134759.485,-0.005251994356513023,0.00991213321685791,-0.003660261631011963,0.007824481464922428,0.011266990564763546,0.016891399398446083,0.016367055,57.043552,Clouds
134759.515,0.0022341939620673656,0.0015679001808166504,-0.008047878742218018,-0.021240882575511932,-0.002639562590047717,-0.02849588543176651,0.0146320565,57.043552,Clouds
134759.545,0.00016177864745259285,0.0032491683959960938,-0.006235659122467041,-0.02641834318637848,0.00024952128296718,-0.03998888283967972,0.030716177,57.043552,Clouds
134759.575,0.0036353389732539654,0.00464475154876709,-0.0033544301986694336,0.0142217967659235,-0.004808004945516586,0.011517839506268501,0.05699758,57.043552,Clouds
134759.605,0.0071195196360349655,-4.172325134277344e-07,-0.006636381149291992,0.022217167541384697,-0.02472938597202301,0.022645117715001106,0.072936244,57.043552,Clouds
134759.635,6.509851664304733e-05,0.0002334117889404297,-0.003246605396270752,-0.005609397776424885,0.025815235450863838,-0.013859831728041172,0.06934695,57.043552,Clouds
134759.665,0.005805867724120617,-0.001427769660949707,0.0011364221572875977,-0.0031692679040133953,-0.004525290802121162,-3.7795689422637224e-05,0.06314609,57.043552,Clouds
134759.694,0.0005032727494835854,0.0023456215858459473,-0.005477011203765869,0.013783445581793785,-0.059377286583185196,0.01985945738852024,0.060983825,57.043552,Clouds
134759.724,0.0033744084648787975,0.003453552722930908,-0.00433659553527832,0.008322834968566895,0.014164366759359837,-0.005952883046120405,0.056976225,57.043552,Clouds
134759.754,-0.010971498675644398,-0.005377471446990967,-0.0006254315376281738,0.005972244311124086,0.014397507533431053,-0.00827421061694622,0.049211238,57.043552,Clouds
134759.784,-0.02713462896645069,-0.012062132358551025,-0.004669547080993652,0.030510906130075455,-0.08658730983734131,-0.0012516605202108622,0.04608215,57.043552,Clouds
134759.814,-0.011391954496502876,-0.008857548236846924,-0.0031133294105529785,0.02594602108001709,-0.03133785352110863,-0.08848012238740921,0.041654203,57.043552,Clouds
134759.844,-0.004685056861490011,0.0009840726852416992,-0.007248044013977051,-0.0580848753452301,0.053251974284648895,-0.11538878083229065,0.039552424,57.043552,Clouds
134759.873,0.007684933952987194,0.013489127159118652,-0.004669666290283203,-0.02855990082025528,-0.016283972188830376,-0.06634869426488876,0.03683306,57.043552,Clouds
134759.903,0.0264253169298172,0.014565467834472656,-0.00804680585861206,0.0459933802485466,-0.09190602600574493,0.00551485363394022,0.031479966,57.043552,Clouds
134759.933,0.0231273602694273,0.018120110034942627,-0.015524148941040039,0.02529156766831875,0.013990309089422226,0.029207933694124222,0.0303117,57.043552,Clouds
134759.963,0.01640067994594574,0.015956759452819824,-0.005538463592529297,0.01877947896718979,0.04618826508522034,0.05024100840091705,0.026849886,57.043552,Clouds
134759.992,0.008490173146128654,0.00950634479522705,0.002422511577606201,0.013360122218728065,-0.04918363690376282,0.06338831782341003,0.025821082,57.043552,Clouds
134800.022,0.0048240856267511845,0.008216142654418945,0.0032909512519836426,-0.015297941863536835,-0.02776854671537876,0.041167326271533966,0.025710512,57.043552,Clouds
134800.052,-0.004967637360095978,0.0014017820358276367,-0.014760255813598633,-0.07224849611520767,0.04159406200051308,-0.0014979392290115356,0.022876097,57.043552,Clouds
134800.082,-0.010524110868573189,0.00036579370498657227,-0.01629936695098877,-0.016046937555074692,0.07196629047393799,-0.04877259209752083,0.022806585,57.043552,Clouds
134800.112,-0.0016310340724885464,0.00416111946105957,-0.012981534004211426,0.05966847017407417,-0.02544008381664753,0.006363325752317905,0.020090695,57.043552,Clouds
134800.141,0.005832827650010586,0.0004942417144775391,-0.008881449699401855,0.024397291243076324,0.0026328687090426683,0.012328210286796093,0.02033099,57.043552,Clouds
134800.171,-0.0011740629561245441,0.0010883808135986328,0.001932978630065918,-0.020531926304101944,0.09925650805234909,-0.028628725558519363,0.024403896,57.043552,Clouds
134800.201,-0.004650387912988663,0.005450308322906494,0.0033277273178100586,-0.03523954004049301,0.011063484475016594,0.008157598786056042,0.031333473,57.043552,Clouds
134800.231,-0.0005417391657829285,0.007532596588134766,0.007273375988006592,0.023058731108903885,-0.05163491889834404,0.05291952192783356,0.032979224,57.043552,Clouds
134800.261,-0.008534752763807774,0.00428849458694458,0.0028153657913208008,0.02036985009908676,0.01593511737883091,0.0029603310395032167,0.030741658,57.043552,Clouds
134800.291,-0.012394845485687256,-0.0005121827125549316,-0.008752882480621338,-0.0710543841123581,0.01812124252319336,-0.007884319871664047,0.030102935,57.043552,Clouds
134800.321,-0.007609001826494932,-0.00043267011642456055,-0.005998134613037109,-0.0010148563887923956,-0.04359002038836479,0.017263313755393028,0.029404301,57.043552,Clouds
134800.351,-0.014499797485768795,-0.0012549757957458496,-0.008507192134857178,0.051014918833971024,-0.02690090239048004,-0.013619398698210716,0.029858787,57.043552,Clouds
134800.380,-0.020387738943099976,-0.009963631629943848,-0.0014168620109558105,-0.008463207632303238,0.011338808573782444,-0.06107643246650696,0.027804367,57.043552,Clouds
134800.411,-0.00521526113152504,-0.01037973165512085,0.005163788795471191,-0.05794139206409454,0.0059795500710606575,-0.1088564395904541,0.02534587,57.043552,Clouds
134800.440,0.00772290863096714,0.0011193156242370605,-0.0023496150970458984,-0.02242450602352619,-0.040682028979063034,-0.060605261474847794,0.02345538,57.043552,Clouds
134800.470,0.01975625567138195,0.008148372173309326,-0.008492112159729004,0.03670277073979378,-0.02958618849515915,-0.011209562420845032,0.021697637,57.043552,Clouds
134800.500,0.022611219435930252,0.005911529064178467,-0.011444807052612305,0.022080952301621437,0.009651456959545612,0.017613893374800682,0.018624965,57.043552,Clouds
134800.530,0.01400190033018589,0.0057489871978759766,-0.015812218189239502,0.005271775647997856,-0.021562378853559494,0.027122072875499725,0.017154656,57.043552,Clouds
134800.559,0.010764768347144127,0.008780241012573242,-0.013946294784545898,0.04956410452723503,-0.03939951956272125,0.05116097256541252,0.015368571,57.043552,Clouds
134800.589,0.0043383087031543255,0.008283257484436035,-0.016728997230529785,0.033146779984235764,0.0497969351708889,0.041974399238824844,0.014181972,57.043552,Clouds
134800.619,-0.0005386988632380962,0.005203902721405029,-0.009688079357147217,0.029200546443462372,0.07981240749359131,0.014154406264424324,0.01390272,57.043552,Clouds
134800.649,-0.0003555798903107643,0.010372340679168701,0.00764775276184082,0.036264244467020035,-0.014009064994752407,0.007718630135059357,0.012638635,57.043552,Clouds
134800.679,-0.0020943242125213146,0.006602108478546143,0.005537986755371094,0.0005210051313042641,-0.008055116981267929,0.011917333118617535,0.012215451,57.043552,Clouds
134800.708,-0.0021013710647821426,0.008308768272399902,0.003108203411102295,-0.04271947965025902,0.05416844040155411,-0.02188701368868351,0.011129952,57.043552,Clouds
134800.738,0.0015934426337480545,0.008022785186767578,0.008576273918151855,-0.006141533609479666,0.031229255720973015,-0.009593780152499676,0.01111071,57.043552,Clouds
134800.768,0.0020040953531861305,0.005401730537414551,0.00587838888168335,0.026946119964122772,-0.06664279103279114,0.034320008009672165,0.010752475,57.043552,Clouds
134800.798,-0.0014811018481850624,0.006417453289031982,-0.007203936576843262,-0.021486058831214905,-0.03449273854494095,0.026564987376332283,0.015651613,57.043552,Clouds
134800.827,-0.007867701351642609,0.005039215087890625,-0.009123802185058594,-0.02874678000807762,0.09148470312356949,-0.02927105873823166,0.014660545,57.043552,Clouds
134800.857,-0.0017532631754875183,0.0028910040855407715,-0.005562186241149902,-0.018412306904792786,0.020273201167583466,-0.04498067498207092,0.013075442,57.043552,Clouds
134800.887,0.007988905534148216,0.004976034164428711,-0.005447268486022949,-0.043439362198114395,-0.03558104485273361,0.002456944901496172,0.013008084,57.043552,Clouds
134800.917,0.004630233161151409,0.00500333309173584,-0.00843799114227295,-0.035078439861536026,0.07427314668893814,-0.007668701931834221,0.01212913,57.043552,Clouds
134800.947,0.0076852235943078995,-0.0005593299865722656,-8.749961853027344e-05,-0.010065460577607155,0.06723926216363907,-0.017169343307614326,0.01993565,57.043552,Clouds
134800.977,0.002868128940463066,-0.0019235014915466309,-0.00034618377685546875,-0.007635058369487524,-0.046966180205345154,0.044739093631505966,0.019240877,57.043552,Clouds
134801.006,0.0073206182569265366,-0.004019677639007568,0.00015676021575927734,0.009986577555537224,-0.017304835841059685,0.023817626759409904,0.016834445,57.043552,Clouds
134801.036,-0.006437559612095356,-0.006259441375732422,-0.01436692476272583,-0.03341006487607956,0.07556364685297012,0.014642483554780483,0.015738439,57.043552,Clouds
134801.066,-0.0053155990317463875,-0.00941169261932373,-0.013272643089294434,0.005557472817599773,-0.0024187953677028418,0.01876954361796379,0.017393384,57.043552,Clouds
134801.096,-0.0037767235189676285,-0.006598174571990967,-0.009509146213531494,0.03144703060388565,-0.008476254530251026,0.005833055358380079,0.085827656,57.043552,Clouds
134801.126,-0.0027841851115226746,-0.0008006691932678223,-0.005460679531097412,0.0022381460294127464,0.050569869577884674,-0.010184097103774548,0.20930815,57.043552,Clouds
134801.156,-0.0022398382425308228,-0.0027748942375183105,-0.006059825420379639,-0.012276915833353996,0.03476209193468094,-0.005922425072640181,0.18203115,57.043552,Clouds
134801.186,0.001255938783288002,0.0055294036865234375,-0.005746662616729736,0.041266702115535736,-0.0030200283508747816,0.016273628920316696,0.16837732,57.043552,Clouds
134801.216,0.008996895514428616,0.011961042881011963,-0.0020642876625061035,0.04245414212346077,-0.034366440027952194,0.04694347456097603,0.16217077,57.043552,Clouds
134801.245,0.003717639483511448,0.004462838172912598,-0.001274704933166504,0.01730264723300934,0.03110640123486519,0.03899635374546051,0.15278183,57.043552,Clouds
134801.276,-0.001855882816016674,0.008251786231994629,-0.0007707476615905762,-0.01411203108727932,0.029165102168917656,0.00024250653223134577,0.141544,57.043552,Clouds
134801.305,0.0020423131063580513,0.01221323013305664,0.002240419387817383,-0.000574684701859951,-0.031850170344114304,0.032270949333906174,0.12389374,57.043552,Clouds
134801.335,-0.0010364437475800514,0.01079249382019043,0.0048062801361083984,0.013421459123492241,0.014832616783678532,0.015531877987086773,0.11963797,57.043552,Clouds
134801.365,-0.004074876196682453,0.012682735919952393,0.006540477275848389,-0.042876504361629486,0.01915052905678749,-0.004967313259840012,0.10880598,57.043552,Clouds
134801.395,0.0007832162082195282,0.011743485927581787,0.0021141767501831055,-0.049628712236881256,-0.00046118098543956876,-0.004456723108887672,0.08925054,57.043552,Clouds
134801.425,0.009225756861269474,0.016751348972320557,0.0029261112213134766,-0.006499388255178928,-0.010123413987457752,0.03031778894364834,0.080826215,57.043552,Clouds
134801.454,0.005336204543709755,0.006341338157653809,0.0005728006362915039,-0.07646339386701584,0.022916696965694427,0.025500807911157608,0.07582245,57.043552,Clouds
134801.484,0.004830553196370602,-0.004014551639556885,-0.007665395736694336,-0.06301403045654297,0.02248810976743698,-0.004422163590788841,0.07239921,57.043552,Clouds
134801.514,0.0011700289323925972,-0.006016075611114502,-0.005842924118041992,0.01707734540104866,0.032822009176015854,0.021715369075536728,0.06748853,57.043552,Clouds
134801.544,-0.00674114003777504,-0.011251628398895264,0.002569437026977539,-0.005584558006376028,0.0241872426122427,0.03486232832074165,0.06254092,57.043552,Clouds
134801.574,-0.008991962298750877,-0.015273749828338623,-0.0028681159019470215,-0.04764009639620781,-0.015922075137495995,-0.016928981989622116,0.057003256,57.043552,Clouds
134801.604,-0.01768164150416851,-0.008818864822387695,-0.014892220497131348,-0.04919968172907829,0.028861254453659058,-0.04314839839935303,0.051367406,57.043552,Clouds
134801.633,-0.009725093841552734,-0.0011104345321655273,-0.01609271764755249,0.004644876811653376,0.029612945392727852,-0.027998534962534904,0.050400864,57.043552,Clouds
134801.663,-0.0036709243431687355,0.0049155354499816895,-0.009117603302001953,0.02509429305791855,-0.012098806910216808,0.0008443606784567237,0.046481837,57.043552,Clouds
134801.693,-0.004403111524879932,0.0037235617637634277,-0.004158437252044678,-0.016827790066599846,0.032580386847257614,-0.013363296166062355,0.04001837,57.043552,Clouds
134801.723,0.00042704585939645767,0.003499925136566162,-0.0035086870193481445,0.0011882609687745571,-0.027873247861862183,0.01323215663433075,0.03676933,57.043552,Clouds
134801.753,-0.0014360826462507248,0.007627427577972412,-0.002274811267852783,0.004874542821198702,-0.05172043293714523,0.052980922162532806,0.03905941,57.043552,Clouds
134801.783,-0.006715663708746433,-0.0012634992599487305,-0.009009122848510742,-0.0005713892169296741,0.028194518759846687,0.00466259615495801,0.08053332,57.043552,Clouds
134801.812,-0.012113354168832302,-0.00023603439331054688,-0.006687521934509277,-0.010868102312088013,0.015618924051523209,-0.02917509898543358,0.07704247,57.043552,Clouds
134801.842,-0.003775186836719513,0.003658771514892578,-0.0018388628959655762,0.00966540165245533,-0.029676852747797966,-0.000686588347889483,0.06977344,57.043552,Clouds
134801.872,-0.00036500580608844757,0.005163729190826416,0.0016873478889465332,0.014224463142454624,0.013715499080717564,-0.01341652125120163,0.06963479,57.043552,Clouds
134801.902,0.0011195167899131775,0.006656348705291748,0.011789083480834961,0.013208197429776192,0.022418946027755737,-0.029627123847603798,0.061314266,57.043552,Clouds
134801.932,0.004747928120195866,0.012593269348144531,0.032927751541137695,-0.016995348036289215,0.008606667630374432,-0.005830961279571056,0.06945436,57.043552,Clouds
134801.993,0.0032279761508107185,0.009971141815185547,0.025164365768432617,-0.09508314728736877,-0.11537326872348785,0.004643728490918875,1e-08,57.043552,Clouds