Timestamp,AccelX,AccelY,AccelZ,GyroX,GyroY,GyroZ,AudioLevel,LightLevel,Weather
135041.016,-0.0014215940609574318,-0.0006128265522420406,0.0013714432716369629,0.0023390748538076878,-0.0018964349292218685,0.0005552702932618558,0.19756076,57.043552,Clouds
135041.046,0.001953057013452053,-8.302880451083183e-05,-0.0011461973190307617,0.00011616270057857037,0.001732122153043747,-0.0007509728893637657,0.17960201,57.043552,Clouds
135041.076,0.004269689321517944,-0.00011083437129855156,-0.0005358457565307617,0.00011361949145793915,-0.0015535032143816352,0.0001368056982755661,0.14988072,57.043552,Clouds
135041.106,-0.0006681466475129128,-0.001345854252576828,-0.0009018182754516602,-0.0016182519029825926,-0.0015999481547623873,0.0011593729723244905,0.1360807,57.043552,Clouds
135041.136,-0.0010332437232136726,-0.0005951933562755585,-0.0013903379440307617,0.002756889211013913,3.742823173524812e-05,0.0006271037273108959,0.11192066,57.043552,Clouds
135041.166,0.0018058782443404198,-0.00014223484322428703,-0.0001239776611328125,-0.0046638017520308495,-0.0019180678064003587,-0.0009643012308515608,0.101528235,57.043552,Clouds
135041.196,0.002320069819688797,-0.0005412641912698746,-0.0009174942970275879,-3.850553184747696e-05,-4.449709376785904e-05,0.00012903608148917556,0.09284615,57.043552,Clouds
135041.225,0.0006133448332548141,-0.0003436366096138954,0.0008372664451599121,0.0019907616078853607,-5.958878682577051e-05,0.0005504529108293355,0.07659517,57.043552,Clouds
135041.255,0.0007114987820386887,-0.0003747898153960705,0.0016914606094360352,-0.00046335370279848576,0.0002423478290438652,-0.0019055686425417662,0.06957768,57.043552,Clouds
135041.285,0.0018337490037083626,-0.0006785104051232338,0.0006996989250183105,0.0028199024964123964,-0.0013493774458765984,0.0002699999895412475,0.059125915,57.043552,Clouds
135041.315,0.0017416896298527718,-0.00014562439173460007,-1.7404556274414062e-05,0.0002408199943602085,-0.0010972557356581092,-0.001436825143173337,0.05496584,57.043552,Clouds
135041.345,-0.000528343953192234,-0.0017357077449560165,0.0002875328063964844,-0.0013157648500055075,-0.0012780275428667665,-0.0007218881510198116,0.050524767,57.043552,Clouds
135041.375,0.00025877077132463455,-0.0013078968040645123,-0.0010861754417419434,0.00016899360343813896,0.0018846363527700305,0.001824461854994297,0.04632985,57.043552,Clouds
135041.404,0.0025386111810803413,0.0003644134849309921,-6.389617919921875e-05,-0.001928132027387619,-0.0007891394197940826,-0.00020243169274181128,0.043558713,57.043552,Clouds
135041.435,0.002098601311445236,0.0021342975087463856,0.0011719465255737305,0.003450799733400345,0.0006829421618022025,-0.0015450019855052233,0.037337746,57.043552,Clouds
135041.464,0.0007933303713798523,-0.001246218103915453,-0.0022611618041992188,-0.0025531239807605743,0.0003699135850183666,-0.000352662056684494,0.03673618,57.043552,Clouds
135041.494,-0.0009492561221122742,-0.0014899042434990406,0.0003631711006164551,0.0019131244625896215,-0.00027594080893322825,-0.0013876007869839668,0.0361501,57.043552,Clouds
135041.524,0.001237291842699051,5.460716784000397e-05,0.0008820295333862305,0.0002009449526667595,-0.0003183568187523633,-0.0018232911825180054,0.03693255,57.043552,Clouds
135041.554,0.0022292854264378548,0.0005979882553219795,0.0012478232383728027,0.0015835436061024666,-0.0009328779415227473,-0.0005284720100462437,0.03557973,57.043552,Clouds
135041.583,0.0007201861590147018,-0.00300653837621212,-0.003848850727081299,0.0021185209043323994,-0.0006911053787916899,0.0009690302540548146,0.032539178,57.043552,Clouds
135041.613,-0.00029968563467264175,-0.002514101564884186,-0.0005679726600646973,-0.0005041016265749931,0.0011279962491244078,-0.0005766301183030009,0.030250143,57.043552,Clouds
135041.642,0.002089066430926323,0.0006622914224863052,0.0017821192741394043,-5.229213275015354e-05,-0.00039590883534401655,0.0019509564153850079,0.027528958,57.043552,Clouds
135041.673,0.0021949540823698044,-0.00010702386498451233,-0.0031768083572387695,-0.0020254352129995823,-0.0006957284058444202,-0.00031521974597126245,0.031333,57.043552,Clouds
135041.703,0.0008027013391256332,-0.00029727304354310036,0.0002866387367248535,0.0007116543129086494,0.0008881891844794154,0.00043110313708893955,0.030847901,57.043552,Clouds
135041.732,0.0002496633678674698,-0.00020225578919053078,0.002132892608642578,0.0013415911234915257,-0.0001738499995553866,0.0013731124345213175,0.029371735,57.043552,Clouds
135041.762,0.003149121068418026,-0.00013444572687149048,-0.0028110742568969727,-0.0021671252325177193,-0.0005498721729964018,0.001297500217333436,0.027813291,57.043552,Clouds
135041.792,0.000827644020318985,0.0004880102351307869,0.001522362232208252,0.0010724805761128664,0.002066926099359989,0.0007405166397802532,0.02594802,57.043552,Clouds
135041.822,-0.0019083181396126747,0.0002065286971628666,-0.0008124113082885742,-8.706911467015743e-05,0.0009496695711277425,-0.00015264999819919467,0.027417907,57.043552,Clouds
135041.852,0.0020547006279230118,-1.2789387255907059e-05,-0.0005992650985717773,0.002614999655634165,0.0013469323748722672,-5.762884393334389e-05,0.02557918,57.043552,Clouds
135041.882,0.0035619502887129784,-0.0008566463366150856,0.0010790824890136719,0.0014273328706622124,0.0013625428546220064,0.0005289007094688714,0.024720844,57.043552,Clouds
135041.912,0.0006824154406785965,-0.0002640741877257824,0.0006673932075500488,0.0016123896930366755,0.00151103176176548,-2.318061888217926e-06,0.023002248,57.043552,Clouds
135041.941,-0.0011667665094137192,8.907634764909744e-05,0.00031638145446777344,0.00014658551663160324,-8.031359175220132e-05,0.0007669332553632557,0.022377413,57.043552,Clouds
135041.971,0.0017310632392764091,-0.00022907787933945656,-0.0002790093421936035,-0.0030212863348424435,0.0014069417957216501,-0.0010611151810735464,0.018954564,57.043552,Clouds
135042.001,0.002456074580550194,-0.0010846219956874847,-0.0002637505531311035,-1.2509524822235107e-05,0.0020704783964902163,-0.0006268064025789499,0.017594317,57.043552,Clouds
135042.031,0.00028467271476984024,-0.0001478106714785099,-0.001835644245147705,0.00040754606015980244,0.0023149156477302313,-8.281820919364691e-05,0.028059201,57.043552,Clouds
135042.061,0.0008857715874910355,-0.0006279870867729187,-0.0007369518280029297,0.0006957650184631348,0.002003731206059456,0.0018953378312289715,0.026721573,57.043552,Clouds
135042.090,0.002695169299840927,0.000744618009775877,0.0008190274238586426,0.002646856475621462,0.002324062632396817,0.0021868760231882334,0.02545805,57.043552,Clouds
135042.120,0.0009120460599660873,0.00019689323380589485,-0.001042485237121582,0.0008593911770731211,-0.0005164372269064188,0.00034660776145756245,0.022009848,57.043552,Clouds
135042.150,-9.464658796787262e-05,-0.0006393743678927422,-0.001653134822845459,0.002601640997454524,-0.0003673447936307639,-0.0010529195424169302,0.020355845,57.043552,Clouds
135042.180,0.0009854938834905624,-0.0014262502081692219,0.00034546852111816406,0.0015854309312999249,-0.00020638579735532403,-0.0020131247583776712,0.018958336,57.043552,Clouds
135042.210,0.006145973689854145,-0.002351453062146902,-0.0025078654289245605,-0.0008774930611252785,-0.0013347244821488857,-0.0008896176586858928,0.01772477,57.043552,Clouds
135042.240,0.001408630982041359,0.001852845773100853,0.00046759843826293945,0.0004024601075798273,-0.00048317480832338333,-0.002005202928557992,0.01677012,57.043552,Clouds
135042.269,-0.002835497260093689,0.004283526446670294,0.0008488893508911133,0.0008626698981970549,0.0006249959697015584,-0.002317761769518256,0.015324419,57.043552,Clouds
135042.299,0.004622921347618103,-0.0008450839668512344,-0.0019134283065795898,0.0016527026891708374,0.00013743521412834525,0.0007863480132073164,0.014636363,57.043552,Clouds
135042.329,0.001488042064011097,-0.0009110253304243088,-0.0003724098205566406,-0.0015564131317660213,-0.0003407365584280342,-0.002782355062663555,0.013586953,57.043552,Clouds
135042.359,-0.0034081777557730675,-0.00109459413215518,-0.00012809038162231445,-0.00024049123749136925,0.0003781991545110941,-0.0006526735378429294,0.013069909,57.043552,Clouds
135042.389,-0.001284535974264145,-0.00032434193417429924,0.00048172473907470703,-5.0205737352371216e-05,-0.0009534694254398346,-0.0035496680065989494,0.012874744,57.043552,Clouds
135042.418,0.003944029100239277,-0.000308724120259285,0.00040543079376220703,-0.0004757626447826624,-0.0016226882580667734,-0.0003271307214163244,0.013587681,57.043552,Clouds
135042.448,0.0001346636563539505,-0.0008045416325330734,0.001320958137512207,0.0012283739633858204,-4.332598109613173e-05,0.0008923549903556705,0.012885003,57.043552,Clouds
135042.478,-0.004047374241054058,0.0007390300743281841,-0.0006477236747741699,0.001484415726736188,-0.0029327417723834515,0.0022350517101585865,0.012838423,57.043552,Clouds
135042.508,0.004362903535366058,-0.00025861943140625954,-0.0011059045791625977,0.002119197975844145,0.003356237430125475,0.0010924310190603137,0.012812147,57.043552,Clouds
135042.538,0.004843377508223057,-0.000745807308703661,-0.0004194974899291992,0.0037332314532250166,0.0012653955491259694,0.0010334437247365713,0.042858426,57.043552,Clouds
135042.568,-0.001361258327960968,0.00019708741456270218,0.0012436509132385254,-0.001176327234134078,0.00010916526662185788,0.002110875677317381,0.036675487,57.043552,Clouds
135042.597,-0.002531306818127632,0.0006572427228093147,-0.00023663043975830078,-0.00165183050557971,0.00023392844013869762,0.0007077720365487039,0.0769511,57.043552,Clouds
135042.627,0.0035667382180690765,0.0004678363911807537,-0.0022202730178833008,-0.0018781402613967657,-0.0012240634532645345,9.737617801874876e-05,0.06422186,57.043552,Clouds
135042.657,0.0007287980988621712,-0.0014515537768602371,0.0007860660552978516,-0.003335659857839346,-0.00027894560480490327,0.0008104640292003751,0.0607302,57.043552,Clouds
135042.687,-0.0016263462603092194,0.0004691900685429573,0.00206834077835083,-0.002849181182682514,-0.0022747365292161703,4.4469255954027176e-05,0.05692945,57.043552,Clouds
135042.717,0.0008576074615120888,-0.0006052819080650806,-0.0009989142417907715,-0.002790735801681876,-0.00016772409435361624,0.0004733421956188977,0.052073628,57.043552,Clouds
135042.747,0.002577061764895916,-0.0022855629213154316,-0.0032880306243896484,0.00027748337015509605,0.00011325805098749697,-0.0005368338315747678,0.050115153,57.043552,Clouds
135042.776,0.0004933811724185944,-0.00014163507148623466,0.0003889799118041992,-0.0014946835581213236,-0.0004519571957644075,-0.0011074228677898645,0.050252434,57.043552,Clouds
135042.806,0.0008187815546989441,0.0003715367056429386,0.0019756555557250977,0.0002452838234603405,-0.0017703279154375196,-0.0009360474068671465,0.049562585,57.043552,Clouds
135042.836,0.0005976948887109756,0.0004763263277709484,-0.0005417466163635254,0.0007309813518077135,-0.000660624704323709,-0.0007161169196479023,0.048069924,57.043552,Clouds
135042.866,0.0001323409378528595,-0.00028368644416332245,-0.00113677978515625,0.003147090319544077,-0.0007810965180397034,0.0005757198086939752,0.08078633,57.043552,Clouds
135042.896,-0.001932673156261444,-0.0010345634073019028,-0.00196075439453125,-0.0024943796452134848,-0.0017202512826770544,-0.0009726703865453601,0.07451996,57.043552,Clouds
135042.925,0.0006361855193972588,0.00029203062877058983,0.0005570054054260254,0.0027100765146315098,-0.0010806586360558867,-0.002903898013755679,0.06701082,57.043552,Clouds
135042.955,0.0034305481240153313,0.0001760963350534439,-0.0015640854835510254,-0.00016659428365528584,-1.7496720829512924e-05,0.0015416890382766724,0.064000055,57.043552,Clouds
135042.985,-0.0009987466037273407,-9.557045996189117e-05,-0.0007249116897583008,0.0011801666114479303,-0.0018196034943684936,0.0026183966547250748,0.060161024,57.043552,Clouds
135043.015,-0.0019582388922572136,-9.7696203738451e-05,-0.0017169713973999023,-0.0020665028132498264,0.0009793165372684598,-0.0020213285461068153,0.053307716,57.043552,Clouds
135043.045,0.0024977736175060272,-0.0001422623172402382,-0.0016560554504394531,0.0006820592097938061,-0.001538861426524818,-0.0028640255331993103,0.050069652,57.043552,Clouds
135043.074,0.0029210560023784637,-2.8459355235099792e-05,-0.00038951635360717773,-0.0007701260037720203,-0.000997982220724225,0.001154066645540297,0.041267496,57.043552,Clouds
135043.104,-0.003768566995859146,0.0008319239132106304,0.0014112591743469238,-0.001940319431014359,-0.0013053372967988253,-0.0005038373055867851,0.039432563,57.043552,Clouds
135043.135,-0.001376771368086338,0.0007140068337321281,0.0003737211227416992,0.0004524150863289833,-0.0004506594268605113,0.0007023689686320722,0.035979703,57.043552,Clouds
135043.164,0.0027889693155884743,-0.0013741119764745235,-0.0019146203994750977,-0.0035416302271187305,0.00022393721155822277,-0.001465885667130351,0.030946009,57.043552,Clouds
135043.194,0.006395591422915459,-0.0029814722947776318,0.00040519237518310547,-0.00021832878701388836,0.0007404019124805927,-0.0009482767782174051,0.029035233,57.043552,Clouds
135043.224,-0.005075899884104729,-0.0012409030459821224,0.00032913684844970703,-0.0017037363722920418,0.00025281659327447414,-0.00012608239194378257,0.026017735,57.043552,Clouds
135043.254,0.0015021096915006638,0.0006885332986712456,-0.0033330321311950684,-0.0005721361376345158,-0.0012767422012984753,-0.0014155581593513489,0.02476168,57.043552,Clouds
135043.283,0.0051306793466210365,-0.000337931327521801,0.0024347305297851562,0.0005768840201199055,-8.258887100964785e-05,0.0008931636111810803,0.0318951,57.043552,Clouds
135043.313,-0.0016650473698973656,0.0004427456296980381,-0.0002048015594482422,0.00018216250464320183,4.144388367421925e-05,-0.0019090466666966677,0.029186143,57.043552,Clouds
135043.343,-0.0011881208047270775,0.0014071525074541569,-0.0009977221488952637,-0.0025077946484088898,-0.0008912315825000405,-4.068907583132386e-05,0.029116472,57.043552,Clouds
135043.373,0.0018709637224674225,-0.0021267812699079514,-0.00261533260345459,-0.004265539813786745,0.0016039956826716661,0.0008434447227045894,0.027332785,57.043552,Clouds
135043.403,0.0015416312962770462,-0.0017362432554364204,-0.0004488229751586914,-0.000529617303982377,0.0021051273215562105,0.00034668578882701695,0.027480865,57.043552,Clouds
135043.433,9.252503514289856e-05,0.00029810890555381775,-0.0002809762954711914,0.0008202253375202417,-0.0007123045506887138,-1.4336430467665195e-05,0.026487174,57.043552,Clouds
135043.463,0.00042583048343658447,0.0004917923361063004,-0.0016239285469055176,0.001195394666865468,0.0006599517073482275,-0.00027238071197643876,0.023759358,57.043552,Clouds
135043.492,0.0020552659407258034,-8.797971531748772e-05,-0.0005862712860107422,-0.0002816182095557451,0.0017442090902477503,-0.0004897030303254724,0.022082204,57.043552,Clouds
135043.522,0.0004442725330591202,0.0004126019775867462,-0.0006932616233825684,-0.0001715917605906725,-7.198497769422829e-05,0.0006097705918364227,0.02017197,57.043552,Clouds
135043.552,-0.00023002643138170242,-0.00023935269564390182,-3.725290298461914e-05,0.0010698467958718538,-1.2798060197383165e-05,0.002149485284462571,0.023952661,57.043552,Clouds
135043.582,0.001995719037950039,-0.00046407710760831833,-0.00028133392333984375,-0.0004919972270727158,0.002298260573297739,-0.0016316162655130029,0.023339503,57.043552,Clouds
135043.612,0.002793797291815281,-0.0005897330120205879,0.0008023977279663086,-0.0005126686301082373,0.0009752025362104177,0.00015434384113177657,0.026612068,57.043552,Clouds
135043.641,-0.00041878223419189453,-3.5262200981378555e-05,-0.00037276744842529297,0.003678192850202322,0.001341507420875132,-0.0007331394590437412,0.04214381,57.043552,Clouds
135043.671,-0.0006530666723847389,-0.000330320093780756,-0.0003727078437805176,0.0023671879898756742,-0.00028989085694774985,-0.00142790493555367,0.044842422,57.043552,Clouds
135043.701,0.002838749438524246,-0.0007429351098835468,-0.0018224120140075684,0.000425614882260561,0.0028946895617991686,0.0010179933160543442,0.041750047,57.043552,Clouds
135043.731,0.0013789767399430275,-0.000714791938662529,0.001381516456604004,-0.0005131850484758615,0.0019907536916434765,0.0007230257033370435,0.040518947,57.043552,Clouds
135043.761,-0.001066671684384346,0.0012222649529576302,-0.00032716989517211914,-0.0013555536279454827,-0.0016047104727476835,-0.0012858642730861902,0.035268016,57.043552,Clouds
135043.790,0.00024166982620954514,0.00045542139559984207,-0.0013039112091064453,-0.0023330729454755783,0.0026053672190755606,0.00018967618234455585,0.033345837,57.043552,Clouds
135043.820,0.0030170977115631104,-0.0012667812407016754,-0.0009224414825439453,0.0013205548748373985,-0.0015150090912356973,-0.0016028452664613724,0.028874815,57.043552,Clouds
135043.850,0.00043362658470869064,0.0002208608202636242,-0.0004798769950866699,-0.0014782921643927693,-0.0017026057466864586,0.00039145807386375964,0.027521448,57.043552,Clouds
135043.880,-0.0014380374923348427,-6.725778803229332e-05,-2.2411346435546875e-05,-0.000871618976816535,0.0008908066083677113,0.0001575094647705555,0.02526374,57.043552,Clouds
135043.910,0.0019119782373309135,0.00037752604112029076,-7.450580596923828e-06,-0.00010239426046609879,-0.00037010235246270895,-0.0018800075631588697,0.039675403,57.043552,Clouds
135043.940,0.0022063618525862694,0.0006885728798806667,0.002083003520965576,-0.0003065031487494707,0.0018847925821319222,2.2869324311614037e-05,0.036362976,57.043552,Clouds
135043.970,-0.0016840295866131783,0.0002459944225847721,-0.00168609619140625,0.001295099500566721,0.0005983642186038196,-0.0004486283869482577,0.04332306,57.043552,Clouds
135043.999,-0.0010983962565660477,-0.0008845892734825611,-0.0014878511428833008,-0.000733646797016263,0.001483915955759585,-0.0026878591161221266,0.042783387,57.043552,Clouds
135044.029,0.003135647624731064,-0.0012328196316957474,-0.0023424625396728516,-0.0011895891511812806,-3.775092773139477e-05,0.0006982374470680952,0.039925493,57.043552,Clouds
135044.059,0.002906782552599907,-0.0004841284826397896,-0.0028456449508666992,0.00035618548281490803,0.0001005746889859438,-0.00036893237847834826,0.03519711,57.043552,Clouds
135044.088,-0.003009190782904625,6.418675184249878e-05,-0.0008471012115478516,-0.0016828097868710756,1.0928881238214672e-05,0.0006745579303242266,0.032613754,57.043552,Clouds
135044.119,0.001397642306983471,-0.0006491071544587612,0.001563727855682373,-0.000517148757353425,-0.0013709863414987922,4.9139896873384714e-05,0.028348472,57.043552,Clouds
135044.148,0.0034747272729873657,-0.0014957915991544724,-0.0009843111038208008,-0.0006729213055223227,0.0007261323044076562,-0.0009242231026291847,0.03248197,57.043552,Clouds
135044.178,-0.0009058034047484398,0.0004187999293208122,2.2590160369873047e-05,0.0005229951348155737,0.00010225408186670393,0.0011271897237747908,0.031385608,57.043552,Clouds
135044.208,-0.0012384820729494095,0.00047201337292790413,0.0008769631385803223,0.002091498812660575,0.000782761606387794,0.0012429703492671251,0.030009495,57.043552,Clouds
135044.238,0.003105112351477146,1.2170989066362381e-05,-0.0010154247283935547,-0.0001469263806939125,-0.0006226605037227273,0.00045280871563591063,0.029616771,57.043552,Clouds
135044.268,0.0021020835265517235,-0.00018657278269529343,-0.0024802088737487793,0.0013392653781920671,-0.0010372322285547853,0.0012095756828784943,0.02791142,57.043552,Clouds
135044.298,-0.0013833343982696533,0.0005456279031932354,0.00014412403106689453,0.0007138780783861876,0.00023676033015362918,0.001800954807549715,0.025900202,57.043552,Clouds
135044.327,0.0009936867281794548,-0.00033096596598625183,-0.00019162893295288086,-0.00016329181380569935,0.0006546930526383221,0.0011826700065284967,0.02410539,57.043552,Clouds
135044.357,0.002498747780919075,-0.0004873489961028099,-0.0008019208908081055,-0.000501115107908845,-0.0007133360486477613,-0.0009953411063179374,0.021687122,57.043552,Clouds
135044.387,-0.0004331478849053383,-0.00016436027362942696,-0.001473546028137207,0.0014337652828544378,0.0009919502772390842,0.001335871871560812,0.02077368,57.043552,Clouds
135044.417,-0.0019363248720765114,0.0005211043171584606,0.0007241368293762207,-0.0004957516212016344,-0.0011717439629137516,0.0016715868841856718,0.020057948,57.043552,Clouds
135044.447,0.001716899685561657,-0.0002968800254166126,-0.0007100105285644531,-0.0008546269964426756,-0.001872202381491661,0.0018771074246615171,0.019317616,57.043552,Clouds
135044.477,0.0027744919061660767,0.00010229460895061493,-0.0004507303237915039,0.000589617295190692,0.001745072309859097,-0.0026800669729709625,0.018042784,57.043552,Clouds
135044.507,-0.0010348083451390266,0.0008542085997760296,-0.00031375885009765625,0.000990019179880619,0.0011350525310263038,0.00018082570750266314,0.016548693,57.043552,Clouds
135044.536,-0.00033124443143606186,9.619351476430893e-05,-0.00013065338134765625,-0.0004585257265716791,-0.0005779757630079985,-0.00017644837498664856,0.01608186,57.043552,Clouds
135044.566,0.0033688051626086235,-0.0009627961553633213,0.0014102458953857422,0.0010261894203722477,0.00011794109013862908,-0.002537074498832226,0.015676472,57.043552,Clouds
135044.596,-6.480328738689423e-05,-0.0010049138218164444,-0.004555642604827881,-0.002035348443314433,-0.0015019777929410338,-0.0009199080523103476,0.014663354,57.043552,Clouds
135044.626,-0.0024518361315131187,-0.0013991119340062141,-0.0006949305534362793,0.002291154582053423,-0.0023277641739696264,0.002121835481375456,0.014283786,57.043552,Clouds
135044.656,0.0018366379663348198,-0.00039846915751695633,0.0009375214576721191,0.0014311154372990131,0.0011189020005986094,-0.0024596648290753365,0.013595344,57.043552,Clouds
135044.685,0.002578740008175373,0.0011776015162467957,0.0009070634841918945,-0.0010298793204128742,-0.00010276968532707542,-0.0015160408802330494,0.014366928,57.043552,Clouds
135044.715,-0.0012193117290735245,0.00017919670790433884,-0.0024036169052124023,0.0012295034248381853,-0.0012310347519814968,0.0033207733649760485,0.017251814,57.043552,Clouds
135044.745,0.00013741757720708847,-0.0007418016903102398,0.0010448098182678223,0.0027128271758556366,-0.0009055986884050071,-0.001391818281263113,0.018297995,57.043552,Clouds
135044.775,0.0024726083502173424,-2.149352803826332e-05,0.002830326557159424,0.0003268143627792597,-0.0021103278268128633,-0.0012356957886368036,0.017690318,57.043552,Clouds
135044.805,0.0008623525500297546,9.044446051120758e-05,-0.001564323902130127,0.0011381416115909815,0.0010310281068086624,-0.0011802481021732092,0.01759187,57.043552,Clouds
135044.835,-0.0019385293126106262,-0.0004665977321565151,-0.0006183981895446777,-0.0003079795278608799,-0.0014334816951304674,-0.00044546317076310515,0.025632577,57.043552,Clouds
135044.864,0.000983252190053463,0.0003052414394915104,-0.0007709264755249023,-0.0012545273639261723,-5.6151271564885974e-05,-9.96048329398036e-05,0.024320139,57.043552,Clouds
135044.894,0.0015028798952698708,-0.00045068003237247467,0.0020978450775146484,0.00041780038736760616,0.002322562737390399,0.0019656713120639324,0.023481058,57.043552,Clouds
135044.924,0.000814998522400856,2.0236242562532425e-05,0.000510871410369873,0.0009983736090362072,-0.0004144821723457426,0.000967702828347683,0.023233078,57.043552,Clouds
135044.954,-0.0005449308082461357,-0.00019570579752326012,0.0001906752586364746,0.00185109069570899,0.0003777622478082776,-0.00038846477400511503,0.022878306,57.043552,Clouds
135044.984,0.0012195780873298645,-0.000632735900580883,2.2292137145996094e-05,0.00042442791163921356,-0.0008335374295711517,0.00010281178401783109,0.04137778,57.043552,Clouds
135045.013,0.0004923604428768158,-0.00024012336507439613,-0.0001608729362487793,-0.0006963901687413454,-0.00038168439641594887,0.0020604776218533516,0.038439352,57.043552,Clouds
135045.043,-0.0008155703544616699,-0.0005383333191275597,0.0004190802574157715,-0.0018052761442959309,0.003076349850744009,-0.00041384081123396754,0.033290077,57.043552,Clouds
135045.073,0.0017256811261177063,-9.243376553058624e-05,-0.0007255077362060547,0.0005071586929261684,0.001960133435204625,-0.00014630047371611,0.03214584,57.043552,Clouds
135045.103,0.00022916961461305618,-0.0002656932920217514,-0.00013071298599243164,-0.0010805176571011543,0.0010320666478946805,-6.224581738933921e-05,0.030050816,57.043552,Clouds
135045.133,-0.0004882970824837685,0.000757094006985426,0.0006628036499023438,0.0013099226634949446,0.0004538204229902476,0.003200397826731205,0.03063399,57.043552,Clouds
135045.163,-0.0008281143382191658,-0.0004728371277451515,-0.0016109943389892578,-0.0024374709464609623,-0.001586166792549193,-0.000582371256314218,0.029661037,57.043552,Clouds
135045.192,0.0016488796100020409,0.00010007387027144432,0.0002962946891784668,-0.0007502839434891939,-0.0008173044770956039,-0.0023408466950058937,0.026099836,57.043552,Clouds
135045.222,0.00013357866555452347,-0.0001077740453183651,0.0004488229751586914,-0.0009728700388222933,-0.00020263830083422363,6.477674469351768e-05,0.025699561,57.043552,Clouds
135045.252,-0.00024793948978185654,-0.00022758496925234795,-0.0014737844467163086,-0.0022758529521524906,0.0036324376706033945,0.0012267364654690027,0.023463603,57.043552,Clouds
135045.281,0.0006970353424549103,-0.0004513673484325409,0.0003724098205566406,-0.0012539033778011799,-0.0011324225924909115,0.0005243894411250949,0.02920435,57.043552,Clouds
135045.312,0.0010668840259313583,-0.00047477614134550095,-5.4836273193359375e-05,-0.0025770780630409718,0.0017206375487148762,-0.0017763932701200247,0.02757179,57.043552,Clouds
135045.342,0.000727849081158638,0.0006639435887336731,-0.00028330087661743164,-0.0004158399533480406,-0.0015432784566655755,0.002065930049866438,0.02477179,57.043552,Clouds
135045.371,0.001331188715994358,0.000132058747112751,0.0004495382308959961,-0.00210688728839159,0.00040575279854238033,0.0003614202723838389,0.023606954,57.043552,Clouds
135045.402,0.000960400328040123,-0.0005934820510447025,0.0008617639541625977,0.0018843391444534063,0.0027559888549149036,-0.0015401927521452308,0.033117127,57.043552,Clouds
135045.431,-0.0003231549635529518,0.0002878275699913502,-0.0011525750160217285,5.7205092161893845e-05,-0.000518571469001472,0.002676241099834442,0.03065634,57.043552,Clouds
135045.461,0.000930306501686573,-0.00019720382988452911,-0.0013968944549560547,-0.0009094302076846361,0.0013956050388514996,-0.0017910663736984134,0.02848925,57.043552,Clouds
135045.491,0.0007168445736169815,-0.001008857972919941,-0.0012137889862060547,0.000452432781457901,0.0005937560345046222,0.0001070777652785182,0.027348755,57.043552,Clouds
135045.521,0.0013431208208203316,-0.0006801597774028778,-0.0008779168128967285,0.0007734587416052818,-0.0003371776547282934,0.002337635261937976,0.02662096,57.043552,Clouds
135045.551,0.0006336243823170662,0.0006004627794027328,-0.001961231231689453,0.00026964046992361546,-0.0011216307757422328,0.0006707559805363417,0.024593577,57.043552,Clouds
135045.580,0.0002223588526248932,9.102281183004379e-05,-0.00031298398971557617,-0.0012907051714137197,-0.0018442710861563683,-0.0028693038038909435,0.03953727,57.043552,Clouds
135045.610,0.0017410488799214363,-0.0017151255160570145,-0.0011829733848571777,0.00023518898524343967,-0.0008985977619886398,-0.000452875392511487,0.038663093,57.043552,Clouds
135045.640,0.0002667699009180069,0.00014533568173646927,-0.0007864236831665039,-0.002238543936982751,-0.0003426606999710202,-0.002620694926008582,0.03368829,57.043552,Clouds
135045.670,-0.00048553943634033203,0.0005766134709119797,7.152557373046875e-06,-0.0018927415367215872,-0.001120750093832612,0.0015521416207775474,0.032803282,57.043552,Clouds
135045.700,0.0011727381497621536,-0.0004890765994787216,-9.936094284057617e-05,0.00038954801857471466,-0.0026854497846215963,0.001904076081700623,0.029434955,57.043552,Clouds
135045.729,0.0020396364852786064,-0.00046141352504491806,-0.00011450052261352539,-0.003515878925099969,0.002185048768296838,0.0001417553867213428,0.02941834,57.043552,Clouds
135045.759,4.0656886994838715e-05,-5.904585123062134e-05,-0.00014483928680419922,-2.021552063524723e-05,-0.0005436342908069491,-0.0009347761515527964,0.028300984,57.043552,Clouds
135045.789,-0.00018403679132461548,-0.00018452713266015053,9.942054748535156e-05,0.0008208795916289091,-0.00029578953399322927,0.0006051468662917614,0.025149992,57.043552,Clouds
135045.819,0.0028570974245667458,-0.000714356079697609,-0.0005726814270019531,0.0019784262403845787,-0.00017177344125229865,-0.000366547959856689,0.023975855,57.043552,Clouds
135045.849,0.001444132998585701,-0.0015366105362772942,-0.0007405877113342285,0.0020055188797414303,-0.0008912461926229298,8.104834705591202e-06,0.021349205,57.043552,Clouds
135045.879,-0.001358875073492527,6.867852061986923e-05,-0.0007864832878112793,-0.0012523381737992167,-0.0009712151950225234,-0.0017673128750175238,0.027845167,57.043552,Clouds
135045.908,0.0011384496465325356,-5.563907325267792e-05,-0.00034415721893310547,-0.00044313003309071064,-0.0011497664963826537,0.00318275298923254,0.027038941,57.043552,Clouds
135045.938,0.0018193302676081657,-0.0006970628164708614,0.00019025802612304688,-0.0009539234451949596,-0.0017299416940659285,-0.001240923535078764,0.024020318,57.043552,Clouds
135045.968,-4.022940993309021e-05,-9.03252512216568e-05,-0.0001150965690612793,0.0011109048500657082,0.00030945619801059365,-0.00047898892080411315,0.034238346,57.043552,Clouds
135045.998,-0.000936717726290226,0.000651123933494091,0.00014406442642211914,0.00035053654573857784,0.00017597773694433272,-0.001619495451450348,0.032796636,57.043552,Clouds
135046.028,0.0012434469535946846,-0.00025485269725322723,-0.0010005831718444824,-0.0013108364073559642,-0.0001302627206314355,0.00043774297228083014,0.03212953,57.043552,Clouds
135046.058,0.0014530038461089134,-0.0006456584669649601,6.765127182006836e-05,0.0005515711382031441,3.588946128729731e-05,-0.0018009908962994814,0.043030336,57.043552,Clouds
135046.087,-0.00036514829844236374,-0.00011289864778518677,0.000662386417388916,0.0008748713880777359,-8.283009083243087e-05,0.002125759609043598,0.037278544,57.043552,Clouds
135046.117,0.00040365103632211685,-8.554942905902863e-05,-0.00029915571212768555,0.0010617808438837528,0.000502063543535769,0.0030898863915354013,0.03522217,57.043552,Clouds
135046.147,0.0017435895279049873,-3.6563724279403687e-06,2.1338462829589844e-05,-0.0022717509418725967,0.00018300616648048162,-0.0009751539910212159,0.033664476,57.043552,Clouds
135046.177,0.0006613275036215782,-0.002022859640419483,-0.0022827982902526855,0.00040652137249708176,-0.0005735765444114804,-0.0019874724093824625,0.032570016,57.043552,Clouds
135046.207,-0.0012436741963028908,0.0006628576666116714,0.0013031363487243652,0.0008094569202512503,0.00025223882403224707,-0.0017250743694603443,0.070703134,57.043552,Clouds
135046.236,0.0012224838137626648,-0.0004085334949195385,-0.00026869773864746094,-0.0010689194314181805,0.00037585903191938996,-0.0008810909930616617,0.06333265,57.043552,Clouds
135046.266,0.0008772071450948715,-0.0008215168491005898,-0.0012148022651672363,0.0015889795031398535,0.0006735874339938164,-0.00010109972208738327,0.058890197,57.043552,Clouds
135046.296,0.0001025032252073288,0.0007635694928467274,0.0013335347175598145,0.0006695578340440989,-0.00023666613560635597,0.0012600172776728868,0.053549316,57.043552,Clouds
135046.326,0.0001444406807422638,-0.0009657987393438816,-0.0007567405700683594,-0.001304855104535818,-0.0008252007537521422,0.0001910002320073545,0.049636323,57.043552,Clouds
135046.356,0.00033039599657058716,-0.0004749288782477379,-0.0005124211311340332,-0.0016583915567025542,0.0002288358227815479,-0.00014102732529863715,0.04703134,57.043552,Clouds
135046.385,0.0004183603450655937,-0.0009470726363360882,0.0006014108657836914,0.000407026382163167,8.915807120501995e-05,-5.387567216530442e-05,0.042934183,57.043552,Clouds
135046.415,-0.0007620174437761307,-0.00014287186786532402,-0.00026851892471313477,-0.0004044992383569479,9.186708484776318e-05,5.463958950713277e-05,0.04038295,57.043552,Clouds
135046.445,0.0012032538652420044,0.00038390280678868294,-0.00016194581985473633,-0.00048444839194417,0.0006795023800805211,-0.0006962683983147144,0.042840477,57.043552,Clouds
135046.475,0.0005067689344286919,-0.00021600909531116486,0.00014317035675048828,0.00039601465687155724,0.0029962779954075813,0.0014339308254420757,0.04194903,57.043552,Clouds
135046.505,0.0006478400900959969,-0.00045152101665735245,0.0006159543991088867,-5.008513107895851e-05,0.0023399200290441513,0.0001631843624636531,0.03866219,57.043552,Clouds
135046.535,-6.401538848876953e-05,-0.00032434146851301193,-0.0007118582725524902,-0.0004772662650793791,-0.0006396445678547025,-0.0006536589935421944,0.033869796,57.043552,Clouds
135046.564,0.001208367757499218,-0.000543384812772274,-0.0007271170616149902,0.0014124962035566568,-0.00019217777298763394,0.0008547887555323541,0.03100957,57.043552,Clouds
135046.594,0.0009463941678404808,-0.00025963783264160156,-0.0001469254493713379,-0.004189006984233856,-0.0009879996068775654,0.0017288471572101116,0.027845671,57.043552,Clouds
135046.624,0.000945153646171093,-0.0007144156843423843,-7.063150405883789e-05,-0.0011610058136284351,-0.00023285509087145329,0.0008125680615194142,0.02598007,57.043552,Clouds
135046.654,0.00048650801181793213,-0.0006310930475592613,-0.0011081695556640625,-0.0020994876977056265,0.000514235463924706,0.0008788573904894292,0.023870284,57.043552,Clouds
135046.684,0.0007805963978171349,-0.0006201239302754402,-0.0008029937744140625,0.0002994642127305269,0.0009587844833731651,0.0013310926733538508,0.021172646,57.043552,Clouds
135046.713,-0.0006996924057602882,-5.688425153493881e-05,0.00018858909606933594,-0.002393301110714674,-1.643103314563632e-05,-0.0017573183868080378,0.022338191,57.043552,Clouds
135046.743,-0.00012303050607442856,-0.000151095911860466,-5.549192428588867e-05,7.180706597864628e-05,-0.00022672934574075043,0.000646876054815948,0.02043488,57.043552,Clouds
135046.773,0.00024372804909944534,-0.00012735789641737938,-0.0011844635009765625,0.0004067786503583193,0.001051060389727354,0.0015134712448343635,0.019366875,57.043552,Clouds
135046.803,-0.0003709718585014343,7.676705718040466e-05,0.0001429915428161621,-0.0004719251301139593,0.0032891337759792805,-0.001025215140543878,0.018099273,57.043552,Clouds
135046.833,-0.0003727581351995468,4.327110946178436e-05,-0.00031489133834838867,-0.000541680259630084,-0.0015077127609401941,0.0033283503726124763,0.016496252,57.043552,Clouds
135046.863,0.0005328813567757607,-0.00053776940330863,0.0008445978164672852,-0.0005908547900617123,0.002467306097969413,-0.00011624186299741268,0.01635686,57.043552,Clouds
135046.893,0.0018061641603708267,-0.0008851196616888046,-0.0006812810897827148,-0.0023621965665370226,-0.0014520733384415507,0.0005234181298874319,0.015559862,57.043552,Clouds
135046.922,0.0007405057549476624,-0.00035299407318234444,0.00017344951629638672,0.00237584812566638,0.0012535101268440485,0.0018276725895702839,0.014609157,57.043552,Clouds
135046.952,-0.0016474127769470215,-0.0007649119943380356,-0.0011086463928222656,-0.0009758241940289736,-0.0025844143237918615,-0.000791904516518116,0.014022746,57.043552,Clouds
135046.982,0.0022269850596785545,-0.0005490127950906754,0.0013023018836975098,-0.000301154563203454,0.001993130659684539,0.0004325812042225152,0.016821068,57.043552,Clouds
135047.012,0.0020875073969364166,2.884119749069214e-05,-0.0005594491958618164,0.0011230073869228363,-0.003274296410381794,-0.0012400022242218256,0.016862554,57.043552,Clouds
135047.042,0.00015647243708372116,-0.0005710376426577568,-0.0006355643272399902,0.0016747077461332083,-0.003100158181041479,0.0022861743345856667,0.020321444,57.043552,Clouds
135047.072,-0.0014275182038545609,-0.00013957126066088676,-4.0471553802490234e-05,0.0019524372182786465,-0.00011253579577896744,0.0016752486117184162,0.019782687,57.043552,Clouds
135047.101,0.0016877567395567894,-0.00027838535606861115,-1.0073184967041016e-05,-0.0012990004615858197,0.0007358400616794825,0.0005461203400045633,0.02976589,57.043552,Clouds
135047.131,0.0018785204738378525,-9.969761595129967e-05,-0.0001932382583618164,-0.000659239012748003,0.000344993663020432,-0.0006953596021048725,0.027587976,57.043552,Clouds
135047.161,-0.0013066288083791733,-0.000550511758774519,0.00014281272888183594,-0.0015689571155235171,0.001269169501028955,8.922250708565116e-05,0.025960736,57.043552,Clouds
135047.191,0.0003180522471666336,-1.818966120481491e-05,0.00011217594146728516,0.0012859452981501818,0.00016341559239663184,-0.0013170128222554922,0.02565777,57.043552,Clouds
135047.221,0.002084808424115181,-5.655130371451378e-05,9.66191291809082e-05,-0.000278090825304389,-6.809859769418836e-07,0.0013383151963353157,0.031335365,57.043552,Clouds
135047.251,-0.0006113210693001747,-0.00013756239786744118,-0.0010935664176940918,-0.0008654906414449215,-0.0009160860208794475,-0.002831734949722886,0.030066501,57.043552,Clouds
135047.280,-0.0006863540038466454,-0.00033785728737711906,-0.0007121562957763672,0.0015898295678198338,-0.002684149658307433,-0.0010418666061013937,0.049224246,57.043552,Clouds
135047.310,0.0007950225844979286,-0.001044353935867548,-0.000803530216217041,0.00018891156651079655,-0.0011068752501159906,-0.0011432083556428552,0.04630765,57.043552,Clouds
135047.340,0.0016963789239525795,-0.0009769340977072716,-0.0007575750350952148,0.00015478557907044888,-0.0013783395988866687,0.00038024960667826235,0.049141046,57.043552,Clouds
135047.370,-0.001222667284309864,0.0007512732408940792,0.0009822249412536621,0.0002872652839869261,-0.0012479519937187433,0.0001964049879461527,0.049104854,57.043552,Clouds
135047.400,-0.00012169685214757919,-0.0005746451206505299,-0.0009401440620422363,0.0007566260173916817,-0.0007432735874317586,0.0006853977683931589,0.04631295,57.043552,Clouds
135047.429,0.0014528678730130196,-0.00019805319607257843,-2.4199485778808594e-05,0.00285261869430542,-0.0015547297662124038,-0.00029254035325720906,0.043311503,57.043552,Clouds
135047.459,0.0006158240139484406,0.0002396753989160061,0.001776278018951416,9.707268327474594e-05,0.00015142560005187988,-0.0016779514262452722,0.05338468,57.043552,Clouds
135047.489,-0.0008322373032569885,5.70700503885746e-05,-0.0017180442810058594,-0.0022524967789649963,-0.0008384520770050585,-0.0010796677088364959,0.049780022,57.043552,Clouds
135047.519,0.0010516289621591568,-0.0007944684475660324,-0.001092374324798584,-0.0013953611487522721,-1.9179366063326597e-05,-0.0005962691502645612,0.04846877,57.043552,Clouds
135047.549,0.0004689795896410942,-0.0010894429869949818,-0.0019930601119995117,0.0006411382928490639,0.00011065267608501017,-0.0015160659095272422,0.06858273,57.043552,Clouds
135047.579,0.0015282649546861649,-0.00010688509792089462,0.0011043548583984375,0.0006303673144429922,-0.00020238812430761755,-0.0006756975199095905,0.06350758,57.043552,Clouds
135047.608,0.0005957242101430893,-0.00048804422840476036,-0.000895082950592041,0.004353164695203304,0.001706747687421739,0.0005897100199945271,0.058485568,57.043552,Clouds
135047.639,0.0009044511243700981,-0.0013535111211240292,-0.030451476573944092,0.003357208799570799,-1.525459811091423e-05,-0.0003120850306004286,0.053269994,57.043552,Clouds
135047.668,0.0007078805938363075,-7.281359285116196e-05,0.011296212673187256,-0.002140442840754986,0.0013059506891295314,-0.0038782116025686264,0.049805433,57.043552,Clouds
135047.698,0.0004681376740336418,0.0024733329191803932,0.012395083904266357,-0.0012673051096498966,0.001880045747384429,0.00019963434897363186,0.04675424,57.043552,Clouds
135047.728,-0.00039054732769727707,0.0014247149229049683,-0.006983578205108643,-0.0012927934294566512,0.0014705214416608214,0.001321922056376934,0.04127353,57.043552,Clouds
135047.758,-3.244820982217789e-05,-0.0020213224925100803,-0.005991756916046143,-0.001725990092381835,0.00017205641779582947,-0.0006557783344760537,0.039111264,57.043552,Clouds
135047.787,0.0015627285465598106,-0.0012901388108730316,0.003376781940460205,0.002664707601070404,0.002976080635562539,-0.00039947073673829436,0.03639605,57.043552,Clouds
135047.817,0.0014933766797184944,0.001927779521793127,0.0013625025749206543,0.0036477618850767612,0.00017434157780371606,-0.00028963229851797223,0.04091408,57.043552,Clouds
135047.847,0.0002963962033390999,0.00041097449138760567,-0.0019791126251220703,0.0008141181897372007,0.0012317018117755651,-0.0017499334644526243,0.039755803,57.043552,Clouds
135047.877,-0.0006893547251820564,-0.0005056001245975494,0.0008283257484436035,-0.0015855244128033519,0.0022491447161883116,0.0006234408356249332,0.035137463,57.043552,Clouds
135047.907,0.0007530981674790382,-0.00038780225440859795,-0.0005298256874084473,0.0008960308041423559,-1.382920891046524e-05,-0.0012000007554888725,0.034613706,57.043552,Clouds
135047.937,0.000858052633702755,0.0004336610436439514,-0.0016286373138427734,0.0038246186450123787,0.0018107667565345764,0.0012854100205004215,0.033799704,57.043552,Clouds
135047.966,-0.0013532117009162903,-0.00033325282856822014,0.0006145238876342773,0.0015139176975935698,-0.00020211367518641055,-0.002825562609359622,0.04172656,57.043552,Clouds
135047.996,0.0002489667385816574,-0.00163591792806983,-0.000636756420135498,-0.00037905690260231495,0.001999444793909788,0.0023597257677465677,0.04081674,57.043552,Clouds
135048.026,0.0017441622912883759,-0.00011772103607654572,0.0008434653282165527,-0.00016633537597954273,-0.002331741852685809,-0.002509364392608404,0.037175063,57.043552,Clouds
135048.056,0.00013507436960935593,0.00027525564655661583,-0.001414477825164795,-2.0072562620043755e-05,-0.0002990701759699732,0.002287822077050805,0.042705964,57.043552,Clouds
135048.085,-0.0013085640966892242,0.00044741062447428703,0.001118779182434082,-0.0001419917680323124,-0.002959485398605466,0.002294232603162527,0.04087293,57.043552,Clouds
135048.115,0.0014585983008146286,-0.00030715111643075943,0.0008133649826049805,0.0002390509471297264,0.0006008237833157182,-0.0017373462906107306,0.03607952,57.043552,Clouds
135048.145,0.002334396354854107,-0.0007128529250621796,0.0027510523796081543,-0.001827536034397781,-0.0016453331336379051,0.002262698020786047,0.034273785,57.043552,Clouds
135048.175,-0.0015200059860944748,-0.0007543042302131653,0.0013779401779174805,0.00024306145496666431,-0.0005335434107109904,0.002628010232001543,0.041928295,57.043552,Clouds
135048.205,-0.0005448954179883003,-0.0003581559285521507,-0.0007581710815429688,-0.0002963158767670393,-0.0034730699844658375,-0.0007215396035462618,0.03843395,57.043552,Clouds
135048.235,0.0015751877799630165,2.1789688616991043e-05,0.0005995631217956543,-7.745879702270031e-05,0.0028008113149553537,-0.0008095648372545838,0.035871577,57.043552,Clouds
135048.264,0.0004949299618601799,-0.00018464494496583939,-0.0022233128547668457,-0.0010470673441886902,-4.806429205927998e-05,1.6525737009942532e-06,0.031439,57.043552,Clouds
135048.294,-0.0010464852675795555,-0.0011658398434519768,-0.002177596092224121,-0.0006810680497437716,-0.0008721193880774081,-0.00041707552736625075,0.030882934,57.043552,Clouds
135048.324,6.821379065513611e-05,-0.0008673174306750298,0.00037038326263427734,0.00018005724996328354,-0.00203923461958766,0.0007548220455646515,0.028662497,57.043552,Clouds
135048.354,0.0004016617313027382,0.0010879267938435078,0.000797569751739502,-0.0005176023114472628,-0.00034678546944633126,0.0008851884049363434,0.027117236,57.043552,Clouds
135048.384,0.0011189570650458336,0.0002792016603052616,0.0016973018646240234,0.000617878045886755,0.00039006705628708005,0.0004942525993101299,0.02708284,57.043552,Clouds
135048.414,-0.0008672056719660759,-0.0006607584655284882,-0.001995563507080078,-0.0015633618459105492,-0.0007901452481746674,0.0030389924068003893,0.029219048,57.043552,Clouds
135048.443,0.00044424645602703094,-0.0004645097069442272,0.0004917383193969727,0.0015745332930237055,-6.844038580311462e-05,0.00041247764602303505,0.028377987,57.043552,Clouds
135048.473,0.0014737071469426155,-0.00015670014545321465,0.000766456127166748,-9.340653195977211e-05,-0.0005692268023267388,-0.00035546679282560945,0.04605959,57.043552,Clouds
135048.503,0.0002659102901816368,0.00024096015840768814,-0.0003775954246520996,0.0010810780804604292,-0.00170743593480438,0.0024591791443526745,0.04797346,57.043552,Clouds
135048.533,-0.00051137525588274,-0.0009997570887207985,6.461143493652344e-05,-0.0015769501915201545,-0.0013112587621435523,0.0008403610554523766,0.04566747,57.043552,Clouds
135048.563,-0.00039547961205244064,-0.00025012996047735214,0.0016822218894958496,0.0009394558146595955,-0.0015543021727353334,-0.00026203965535387397,0.04659342,57.043552,Clouds
135048.593,0.0010641701519489288,0.00037286151200532913,0.00011038780212402344,-6.996328011155128e-05,-0.0007879993645474315,0.0021714719478040934,0.043633685,57.043552,Clouds
135048.622,0.0008976366370916367,-0.001029884908348322,0.0005376338958740234,0.001562996068969369,-0.0002910408074967563,-0.00106193614192307,0.04027228,57.043552,Clouds
135048.652,-0.0006262520328164101,-0.0008792039006948471,-0.0003470778465270996,-0.0037652598693966866,-0.0008595474646426737,-0.0019325565081089735,0.039396696,57.043552,Clouds
135048.682,7.029809057712555e-05,-0.0004217331297695637,0.0015147924423217773,-0.0007407860830426216,0.0013544578105211258,-0.0007740248111076653,0.03653091,57.043552,Clouds
135048.712,-0.000564059242606163,-9.441748261451721e-05,-0.0006061792373657227,-0.0015124221099540591,-0.0022179423831403255,-0.00044336775317788124,0.030868875,57.043552,Clouds
135048.742,0.000423971563577652,-0.0012847650796175003,-0.0010486245155334473,0.0024292725138366222,-0.001011775922961533,-0.000367931614164263,0.028646592,57.043552,Clouds
135048.772,-0.00031344126909971237,-0.0009883330203592777,0.0007976889610290527,-0.0011211063247174025,0.00017155443492811173,0.002321915701031685,0.030690446,57.043552,Clouds
135048.802,0.0007032975554466248,-0.00036618858575820923,0.0011639595031738281,-0.0021937089040875435,0.00011914814240299165,-0.0010759984143078327,0.029243471,57.043552,Clouds
135048.831,0.00022828485816717148,-0.0008730301633477211,-0.0007586479187011719,0.0017409673891961575,-8.847124991007149e-05,0.00014703988563269377,0.027881458,57.043552,Clouds
135048.861,-0.0002215830609202385,-0.000796082429587841,0.0015606880187988281,-0.003115394152700901,0.0003501823521219194,0.0009437362896278501,0.030103182,57.043552,Clouds
135048.891,-0.001042960211634636,1.666974276304245e-05,0.0032696127891540527,-0.0006756151560693979,-0.0003217293124180287,-0.0003763069398701191,0.028898181,57.043552,Clouds
135048.921,0.000602448359131813,-0.00010696658864617348,-0.0028488636016845703,-0.0026433304883539677,-0.00014337939501274377,-7.474789163097739e-05,0.026232025,57.043552,Clouds
135048.951,-6.833020597696304e-05,-0.0010778876021504402,-0.0011397600173950195,-0.0002447376027703285,0.0026912991888821125,-0.000515674939379096,0.026296195,57.043552,Clouds
135048.980,-0.00018610339611768723,-0.00030643632635474205,-0.0004686117172241211,-0.0015596701996400952,0.0005415442283265293,0.0020790393464267254,0.028236998,57.043552,Clouds
135049.010,-0.0013036467134952545,1.3173092156648636e-05,0.0002638101577758789,-0.001262025791220367,0.0008563901646994054,0.00020026363199576735,0.025152829,57.043552,Clouds
135049.040,0.0018339985981583595,-0.0001350599341094494,-0.003520369529724121,0.0007500068750232458,-0.0003388176264706999,0.0007174434140324593,0.033642378,57.043552,Clouds
135049.070,0.0011717909947037697,0.0005261078476905823,0.0021402835845947266,0.0017335442826151848,0.0012693487806245685,-0.0003460842417553067,0.03260008,57.043552,Clouds
135049.099,-0.0010764654725790024,0.0003096838481724262,0.0022469758987426758,-0.0014716156292706728,0.001394164515659213,0.00037738779792562127,0.035207003,57.043552,Clouds
135049.129,0.00042723398655653,-0.0006147571839392185,-0.0008200407028198242,0.00033425772562623024,-0.001729963580146432,0.0011886353604495525,0.03408853,57.043552,Clouds
135049.159,0.0014775460585951805,-0.000816290732473135,-0.0012319087982177734,-0.002164004370570183,-0.00010695427772589028,-0.0008213098044507205,0.030459428,57.043552,Clouds
135049.189,-3.908202052116394e-05,0.0002422328107059002,0.004185140132904053,-0.001405317452736199,0.0016692550852894783,0.0003247938584536314,0.02995493,57.043552,Clouds
135049.219,-0.0010309498757123947,-0.0003744526766240597,0.0016828179359436035,-0.002191168023273349,0.0005126003525219858,-0.0023045691195875406,0.03414486,57.043552,Clouds
135049.249,0.0012800060212612152,-0.0011621583253145218,-0.001308143138885498,0.0022237116936594248,-0.001299288123846054,9.94449364952743e-05,0.03251917,57.043552,Clouds
135049.278,0.0022807102650403976,-0.0006824643351137638,0.0011946558952331543,-0.0011823646491393447,0.0007798128062859178,0.00012626382522284985,0.030091692,57.043552,Clouds
135049.309,-0.0001876717433333397,-0.0005726520903408527,0.0017591118812561035,0.0021241807844489813,-0.003172133583575487,-0.0008101913263089955,0.028748697,57.043552,Clouds
135049.338,0.0006973650306463242,-0.0015874886885285378,-0.0002854466438293457,-0.0011953143402934074,0.0007734870887361467,-0.0012140295002609491,0.026569888,57.043552,Clouds
135049.368,0.0010660523548722267,-0.00037560099735856056,0.0009503364562988281,8.616503328084946e-05,0.0020466463174670935,-0.0004452458815649152,0.023465497,57.043552,Clouds
135049.398,-0.000983821228146553,-0.0007892679423093796,-0.00011813640594482422,0.0034561953507363796,0.000791004509665072,0.0017057263758033514,0.022334643,57.043552,Clouds
135049.428,-0.0005649039521813393,-0.0011581373400986195,-0.0011559128761291504,-0.002054630545899272,-0.0010143909603357315,0.00044528793659992516,0.021092238,57.043552,Clouds
135049.458,0.00030205585062503815,-0.0003400980494916439,0.00011086463928222656,-0.0013180392561480403,-0.0002621893654577434,-0.00047365250065922737,0.019858986,57.043552,Clouds
135049.487,0.001827022060751915,-0.00010899873450398445,0.00047701597213745117,-0.0011287336237728596,-0.0013695147354155779,-0.0008276645676232874,0.026847292,57.043552,Clouds
135049.517,0.00013838429003953934,-9.997747838497162e-05,-0.0012781023979187012,-0.0014004789991304278,-0.0010160724632441998,0.0007831893162801862,0.024838107,57.043552,Clouds
135049.547,-0.0007560336962342262,0.0005484740249812603,-0.0016745924949645996,0.000592527911067009,-0.000222229486098513,0.00288859149441123,0.024333848,57.043552,Clouds
135049.577,0.0008957246318459511,0.00010833656415343285,0.0009652972221374512,0.0031042173504829407,-0.0009770358446985483,0.000972079869825393,0.024204573,57.043552,Clouds
135049.607,-0.0003949124366044998,-0.00034819217398762703,7.998943328857422e-05,-0.002818953013047576,-0.0015264685498550534,-0.0014648174401372671,0.031244846,57.043552,Clouds
135049.637,-0.0005700429901480675,0.0003281491808593273,-0.0010800957679748535,0.0005331088323146105,0.0008454725611954927,0.0011541610583662987,0.031075861,57.043552,Clouds
135049.666,0.000852745957672596,0.00040148571133613586,-0.0005000829696655273,0.0005559353157877922,-0.00259044929407537,-3.770273178815842e-05,0.04061792,57.043552,Clouds
135049.696,0.0009725680574774742,0.00022372929379343987,0.00021719932556152344,-0.0003807288594543934,-1.053238520398736e-06,-0.0017117736861109734,0.049842153,57.043552,Clouds
135049.726,-0.0007807100191712379,-0.0001693996600806713,-4.208087921142578e-05,-0.0019432612461969256,0.00033165313652716577,-0.0008340492495335639,0.0919602,57.043552,Clouds
135049.756,0.00034789834171533585,-0.0003900723531842232,-0.004986166954040527,-0.0003121641930192709,-0.0026552388444542885,0.0018811821937561035,0.08520283,57.043552,Clouds
135049.786,0.0017259595915675163,-0.0020392220467329025,0.0032077431678771973,0.0025328975170850754,0.0003262019599787891,5.319778574630618e-05,0.081088126,57.043552,Clouds
135049.816,0.0013495851308107376,0.0016563250683248043,0.0005224347114562988,-0.0015509111108258367,0.0009095279965549707,0.00020758365280926228,0.07137465,57.043552,Clouds
135049.845,-0.002600877545773983,0.002011154778301716,0.0015752315521240234,-0.0012677533086389303,-0.0013937156181782484,-0.0005492600612342358,0.06722936,57.043552,Clouds
135049.875,0.0013823816552758217,-0.0015322663821280003,-0.003689289093017578,0.0004448862746357918,-0.0009062538156285882,-0.0009150041150860488,0.062485874,57.043552,Clouds
135049.905,-0.00011564884334802628,0.0002832692116498947,0.001025557518005371,0.004278085194528103,-0.0017375978641211987,0.00231435289606452,0.053982213,57.043552,Clouds
135049.935,0.008497591130435467,-0.004859696142375469,-0.0034757256507873535,0.0007683897856622934,-0.0006069818628020585,0.0016360969748347998,0.051652633,57.043552,Clouds
135049.965,-0.009161465801298618,-0.0019736443646252155,0.0026270151138305664,0.002518430119380355,0.002395869931206107,-0.0004437367897480726,0.04470194,57.043552,Clouds
135049.995,0.0003451704978942871,0.002722713630646467,0.00039887428283691406,0.0005286207888275385,0.0015714013716205955,0.0011244530323892832,0.04223662,57.043552,Clouds
135050.024,0.00817146897315979,0.0016790777444839478,-0.0028207898139953613,-0.0015917232958599925,-0.0017244011396542192,-0.0016537694027647376,0.03924416,57.043552,Clouds
135050.054,-0.004383794032037258,-0.0018785041756927967,0.0006276965141296387,0.003491006325930357,-0.0007039783522486687,-3.957777516916394e-05,0.034045506,57.043552,Clouds
135050.084,-0.005103176459670067,-0.0010576872155070305,0.0005969405174255371,-0.0001817427109926939,0.0013987468555569649,0.0004347766807768494,0.035294726,57.043552,Clouds
135050.114,0.0044394973665475845,9.530549868941307e-05,-0.0008835196495056152,0.0008321464993059635,-0.0011767034884542227,-0.00036977126728743315,0.03429173,57.043552,Clouds
135050.143,0.006156434305012226,-0.0003574793227016926,-0.0013260245323181152,-0.001275758258998394,2.0591920474544168e-05,-5.02506154589355e-05,0.032683503,57.043552,Clouds
135050.174,-0.0076299021020531654,0.0010873866267502308,0.001084744930267334,-0.0006964285857975483,0.0013041618512943387,-0.00010423013009130955,0.031447597,57.043552,Clouds
135050.203,-0.0018543628975749016,0.0007126731798052788,-0.0015398859977722168,0.0016849343664944172,0.0010848066303879023,-0.00035418191691860557,0.027250502,57.043552,Clouds
135050.233,0.010110094211995602,-0.001021131407469511,-0.0021964311599731445,4.8515619710087776e-05,0.0016433640848845243,-0.00012202007928863168,0.02529982,57.043552,Clouds
135050.263,-0.004146810621023178,0.0013996823690831661,0.004960060119628906,-0.0008488213643431664,0.0005311343120411038,0.0007431624107994139,0.026358357,57.043552,Clouds
135050.293,-0.00648998748511076,-0.001151673961430788,-0.0007623434066772461,-0.00014961278066039085,0.0005203696200624108,3.446289338171482e-05,0.035258,57.043552,Clouds
135050.323,0.005706364288926125,0.00021762540563941002,0.0012974143028259277,-8.793873712420464e-05,0.0002419671363895759,0.0016667048912495375,0.0409478,57.043552,Clouds
135050.353,0.0004631616175174713,-0.002239169552922249,-0.003081977367401123,0.0023728813976049423,-0.00030551571398973465,-0.0015637644100934267,0.038972635,57.043552,Clouds
135050.382,-0.0047343410551548,0.0003548511303961277,0.0008090734481811523,-0.0010133048053830862,0.0015019428683444858,0.000704211532138288,0.03730316,57.043552,Clouds
135050.412,0.00021864566951990128,0.0020746071822941303,0.00276261568069458,-0.0005898419767618179,-0.001251586014404893,0.0005206174682825804,0.033909127,57.043552,Clouds
135050.442,-0.0005104057490825653,-0.00041847676038742065,0.0004584789276123047,-0.0026041343808174133,0.0013934960588812828,-0.001142533728852868,0.049358044,57.043552,Clouds
135050.472,0.005670685321092606,-0.002677822019904852,-0.0023487210273742676,-0.003775204299017787,-0.0005966119933873415,-0.00011595815885812044,0.047614556,57.043552,Clouds
135050.502,-0.0022898074239492416,0.001318915281444788,0.00012320280075073242,-0.0009192535653710365,0.0008007707074284554,0.00042440681136213243,0.042030353,57.043552,Clouds
135050.532,-0.006803103722631931,0.002738882787525654,0.0004131197929382324,-0.002210821956396103,0.0033175868447870016,0.0021076062694191933,0.038847715,57.043552,Clouds
135050.561,0.008160389959812164,-0.0017550480552017689,-0.001585841178894043,-0.0023467224091291428,0.0007854747818782926,-0.0014763996005058289,0.033745546,57.043552,Clouds
135050.591,0.0008271168917417526,-9.28346998989582e-05,0.000382840633392334,0.0008757684845477343,0.0004319446161389351,-0.0009381769341416657,0.03175208,57.043552,Clouds
135050.621,-0.008838485926389694,0.0008041560649871826,0.0008255243301391602,-0.0004634333308786154,0.0021754996851086617,0.00027905061142519116,0.031203005,57.043552,Clouds
135050.651,0.0026767924427986145,-0.00013182731345295906,-0.001295626163482666,-0.0013379808515310287,0.00014836195623502135,0.00261017307639122,0.027984776,57.043552,Clouds
135050.680,0.00911630317568779,0.0007601529359817505,0.00027626752853393555,-0.000626277644187212,-0.0013966514961794019,-0.0004857900785282254,0.026601413,57.043552,Clouds
135050.710,-0.0044723497703671455,-0.0034347688779234886,0.0009476542472839355,-0.000808497192338109,0.001178579404950142,0.0001938290661200881,0.024943678,57.043552,Clouds
135050.740,-0.004444314166903496,0.0004704035818576813,-0.0006238222122192383,-0.000493345782160759,-0.0007980286609381437,0.0024536147247999907,0.024998335,57.043552,Clouds
135050.770,0.005240254104137421,-0.0005810679867863655,-0.00321805477142334,0.0008204181212931871,0.0035583977587521076,-0.001102834357880056,0.028104078,57.043552,Clouds
135050.800,0.004350907169282436,-0.0003140028566122055,0.0017871856689453125,-0.001090895151719451,-0.0015785489231348038,-0.0006167738465592265,0.032067932,57.043552,Clouds
135050.830,-0.004843837581574917,-0.0005909791216254234,0.0015887618064880371,-0.000289668794721365,0.0010489901760593057,0.0006104622734710574,0.035472017,57.043552,Clouds
135050.860,-0.0005136318504810333,-0.0001358427107334137,-0.0020584464073181152,0.0023252388928085566,-9.987681551137939e-05,0.0012731915339827538,0.034084413,57.043552,Clouds
135050.889,0.006519072689116001,-0.0010444377548992634,-0.0012496709823608398,-0.001241330523043871,-0.002032645046710968,-0.0011731372214853764,0.031700168,57.043552,Clouds
135050.919,2.3441389203071594e-06,-0.0006752293556928635,0.0014358162879943848,0.0012222928926348686,0.0010839186143130064,0.000568454503081739,0.029876035,57.043552,Clouds
135050.949,-0.0053801340982317924,-0.00021196017041802406,0.00018459558486938477,-0.003444041358307004,-0.0012867014156654477,0.0002579282154329121,0.041753966,57.043552,Clouds
135050.979,0.0015738466754555702,-0.0005293409340083599,-0.0011886954307556152,-0.0020796721801161766,-0.004705894272774458,0.0006782819400541484,0.038770568,57.043552,Clouds