Timestamp,AccelX,AccelY,AccelZ,GyroX,GyroY,GyroZ,AudioLevel,LightLevel,Weather
134928.779,-0.004755690693855286,-0.005593284964561462,-0.0007380247116088867,-0.0012396426172927022,-0.0034165680408477783,0.0015892641386017203,0.31693175,57.043552,Clouds
134928.808,-0.005019018426537514,-0.0050726886838674545,-0.00017267465591430664,-0.0005798141937702894,-0.0004541386151686311,0.00018049334175884724,0.29029146,57.043552,Clouds
134928.839,-0.00602366030216217,-0.0061759017407894135,-0.0006753802299499512,0.002437533577904105,-0.00015908328350633383,-0.0021589938551187515,0.23240273,57.043552,Clouds
134928.869,-0.005524510517716408,-0.00556270033121109,-0.000537872314453125,0.002606232650578022,0.00017059552192222327,0.0011850588489323854,0.20876282,57.043552,Clouds
134928.899,-0.0053465478122234344,-0.005279321223497391,-0.0001564621925354004,0.002070185262709856,-4.98436093039345e-05,0.00019496207823976874,0.1673673,57.043552,Clouds
134928.928,-0.0058625731617212296,-0.005598445422947407,7.2479248046875e-05,0.0009847504552453756,0.0011291980044916272,0.002344248816370964,0.14965074,57.043552,Clouds
134928.958,-0.005631361156702042,-0.005273371934890747,-0.0007048845291137695,0.0001977146603167057,-0.0026262567844241858,-0.0006061806925572455,0.13401282,57.043552,Clouds
134928.989,-0.00495891273021698,-0.005271713715046644,-0.000674128532409668,-0.00032527162693440914,0.0011525005102157593,-0.0005978319677524269,0.10709691,57.043552,Clouds
134929.018,-0.005034038797020912,-0.0055216336622834206,0.000317990779876709,-0.00023258221335709095,0.0009575523436069489,-0.002846467774361372,0.09669994,57.043552,Clouds
134929.048,-0.003765607252717018,-0.006637526210397482,-0.03557008504867554,-0.0014864755794405937,-0.002745848847553134,-0.0003214527969248593,0.08338526,57.043552,Clouds
134929.077,-0.0010136179625988007,-0.010118979960680008,0.01144176721572876,0.005151062272489071,0.005501660518348217,-0.00031843106262385845,0.08172395,57.043552,Clouds
134929.107,-0.008651291951537132,-0.004958141595125198,0.023649156093597412,-8.9260283857584e-05,-0.0014399964129552245,0.0013123458484187722,0.0790989,57.043552,Clouds
134929.137,-0.005469992756843567,-0.0011726823868229985,-0.01239168643951416,0.000537708168849349,-0.002298056846484542,0.0005425951676443219,0.07781932,57.043552,Clouds
134929.167,-0.002797413617372513,-0.006820978596806526,-0.004655182361602783,0.0003165618982166052,0.00043218451901338995,0.0010448331013321877,0.09564347,57.043552,Clouds
134929.197,-0.00477282889187336,-0.007491383235901594,0.0021356940269470215,0.0004399428144097328,-0.00016773480456322432,0.0010388888185843825,0.1384088,57.043552,Clouds
134929.227,-0.006441779434680939,-0.004193753935396671,0.0016933083534240723,-0.0009648383129388094,-0.0004897330654785037,0.0020966632291674614,0.13015428,57.043552,Clouds
134929.257,-0.004371879622340202,-0.0034960145130753517,-0.0021212100982666016,-0.0005487292073667049,4.462159995455295e-05,0.0015075667761266232,0.1237196,57.043552,Clouds
134929.286,-0.0044067129492759705,-0.00597909651696682,-0.0007324814796447754,0.0022462501656264067,0.00019782764138653874,0.00010985357221215963,0.15187411,57.043552,Clouds
134929.316,-0.005746113136410713,-0.006747901439666748,0.0009459853172302246,-0.0010363822802901268,0.0035792910493910313,0.002370594535022974,0.14311583,57.043552,Clouds
134929.345,-0.004650622606277466,-0.004185304511338472,-3.0338764190673828e-05,0.0005886354483664036,-0.0015224239323288202,0.0009411662467755377,0.13595355,57.043552,Clouds
134929.376,-0.005150303244590759,-0.005061266478151083,-0.0013120174407958984,-0.0005251085385680199,-0.0002863647823687643,-0.0003289598389528692,0.12652923,57.043552,Clouds
134929.405,-0.006040152162313461,-0.005637623369693756,-0.00010561943054199219,-0.0004146911669522524,0.0004732959787361324,0.0019199925009161234,0.12052216,57.043552,Clouds
134929.435,-0.005275718867778778,-0.0054460009559988976,-0.00027292966842651367,-0.0009666497353464365,-0.0008819240611046553,0.0002576619735918939,0.10560115,57.043552,Clouds
134929.465,-0.005236838012933731,-0.004575923550873995,-0.0005469322204589844,-0.004274358507245779,-0.0023836989421397448,0.001209162874147296,0.09871117,57.043552,Clouds
134929.495,-0.004467211663722992,-0.005292534828186035,-0.0004239082336425781,-0.0022047613747417927,-0.0014062415575608611,0.0005127988988533616,0.085455365,57.043552,Clouds
134929.525,-0.005618957802653313,-0.005386245436966419,0.0003999471664428711,-0.00184099399484694,0.0008229312370531261,-0.0008073473582044244,0.08184196,57.043552,Clouds
134929.555,-0.004584396257996559,-0.004725726321339607,-0.0006830096244812012,0.0015368128661066294,-0.0006259990623220801,-0.0005083269788883626,0.07643438,57.043552,Clouds
134929.584,-0.004418002441525459,-0.00546497106552124,-0.0012323260307312012,-0.00047683389857411385,-0.0013235971564427018,0.0004225580778438598,0.07920484,57.043552,Clouds
134929.614,-0.004832088947296143,-0.005474083591252565,-0.001064002513885498,-0.0012004177551716566,-0.0014740710612386465,0.0011131399078294635,0.12263371,57.043552,Clouds
134929.644,-0.00538322888314724,-0.005784377455711365,-0.0011401176452636719,0.0017730803228914738,0.00034515195875428617,-0.001538812299259007,0.11759566,57.043552,Clouds
134929.674,-0.005041282624006271,-0.0049749501049518585,-0.0001944899559020996,0.0003053327091038227,0.0003271551395300776,0.000749896455090493,0.11376619,57.043552,Clouds
134929.704,-0.003862537443637848,-0.005104305222630501,-0.0228540301322937,-0.00018752994947135448,-0.0017977925017476082,-0.0003749182214960456,0.11293734,57.043552,Clouds
134929.734,-0.004264293238520622,-0.0029034889303147793,0.012378931045532227,0.0007643008138984442,0.00040962296770885587,0.0011899257078766823,0.10292299,57.043552,Clouds
134929.763,-0.006623372435569763,-0.0020866047125309706,0.010044693946838379,-0.00038838316686451435,0.001175519428215921,0.0027352566830813885,0.1738634,57.043552,Clouds
134929.793,-0.005963968113064766,-0.005346980411559343,-0.009044051170349121,0.0030411507468670607,-0.000740573275834322,0.0008999651181511581,0.15596448,57.043552,Clouds
134929.823,-0.002956131473183632,-0.006977624259889126,-0.004435896873474121,0.002319980412721634,-0.0011433055624365807,0.00230289064347744,0.1447062,57.043552,Clouds
134929.853,-0.004336996003985405,-0.004977460019290447,0.003667175769805908,-0.0002716823946684599,0.0008969135815277696,-0.00014847941929474473,0.13509272,57.043552,Clouds
134929.883,-0.00686255469918251,-0.003239517565816641,0.000981748104095459,-0.0031781422439962626,-0.00251527177169919,0.000333222298650071,0.13021155,57.043552,Clouds
134929.913,-0.004994018003344536,-0.004652186296880245,-0.003489196300506592,0.003821450285613537,-0.0013690952910110354,-0.0005965197342447937,0.130173,57.043552,Clouds
134929.942,-0.003083711490035057,-0.005947202909737825,-0.0017493963241577148,-0.00044127972796559334,-0.00036095964605920017,-0.0016122583765536547,0.11229038,57.043552,Clouds
134929.972,-0.0045801252126693726,-0.004904328845441341,0.0020197629928588867,-0.002086132764816284,-0.00040473343688063323,-0.0003877933486364782,0.10125962,57.043552,Clouds
134930.002,-0.005398983135819435,-0.003876482369378209,0.0005857944488525391,0.0033654195722192526,0.00018107093637809157,-0.0006955195567570627,0.09076285,57.043552,Clouds
134930.032,-0.004942171275615692,-0.004495277535170317,-0.0013063549995422363,0.0005955570377409458,0.0015003575244918466,0.0021738908253610134,0.08444527,57.043552,Clouds
134930.062,-0.004188640043139458,-0.004976300522685051,-0.0006804466247558594,0.0009082169272005558,-0.00010872175334952772,0.0010490203276276588,0.07978663,57.043552,Clouds
134930.091,-0.005698941648006439,-0.004380279220640659,0.0006315112113952637,0.00025097746402025223,-0.0013353070244193077,-0.0008960246341302991,0.07168007,57.043552,Clouds
134930.121,-0.005304101854562759,-0.004298785701394081,-0.0008484125137329102,0.0011049730237573385,-0.001587473088875413,0.0011713424464687705,0.06787586,57.043552,Clouds
134930.151,-0.0038199108093976974,-0.004477241076529026,-0.0011230111122131348,0.00011589168570935726,-0.00037850256194360554,-0.0002585626789368689,0.06441212,57.043552,Clouds
134930.181,-0.00460733100771904,-0.004626932553946972,0.00018936395645141602,-0.000987756997346878,0.0025049331597983837,0.0005124823073856533,0.06078133,57.043552,Clouds
134930.211,-0.004476998001337051,-0.005175671074539423,-0.0009397268295288086,0.0005192146636545658,0.002007072325795889,-0.0006484442856162786,0.060833525,57.043552,Clouds
134930.241,-0.004936467856168747,-0.004936626181006432,-0.0011078715324401855,0.0005385139957070351,0.0010564420372247696,0.001799119170755148,0.05834378,57.043552,Clouds
134930.271,-0.005040591582655907,-0.0038337206933647394,0.00026547908782958984,0.00015781656838953495,0.0022181044332683086,0.003322452073916793,0.056848563,57.043552,Clouds
134930.300,-0.0043610092252492905,-0.004560909233987331,-0.0006343722343444824,-0.0003060747403651476,0.0007461771601811051,-0.0007540053338743746,0.052106228,57.043552,Clouds
134930.330,-0.0053266920149326324,-0.004925355315208435,0.0008456110954284668,-0.00018020975403487682,0.0017739718314260244,0.001037832349538803,0.044912513,57.043552,Clouds
134930.360,-0.003843246027827263,-0.004463144578039646,-0.0003902912139892578,0.0008084431756287813,-0.001378629356622696,-0.0005258337478153408,0.041623376,57.043552,Clouds
134930.390,-0.004114512354135513,-0.003938011359423399,-0.0010004043579101562,-0.0011889847228303552,0.00034130978747271,0.0004797020519617945,0.035579115,57.043552,Clouds
134930.420,-0.004112225025892258,-0.005013430491089821,0.00012874603271484375,0.00020583276636898518,-0.0008448492153547704,3.0337541829794645e-05,0.032267865,57.043552,Clouds
134930.449,-0.004965914413332939,-0.004814331419765949,8.314847946166992e-05,7.86827877163887e-05,0.00037737362436018884,0.004300746601074934,0.03035618,57.043552,Clouds
134930.479,-0.004550404846668243,-0.004562705289572477,-0.0010454654693603516,-0.00027902168221771717,-0.00013579886581283063,0.0012895320542156696,0.026477171,57.043552,Clouds
134930.509,-0.004902878776192665,-0.005295621231198311,-0.0008318424224853516,0.000856887549161911,0.0022404915653169155,-0.0026564253494143486,0.024868285,57.043552,Clouds
134930.539,-0.004875194281339645,-0.004723646678030491,0.0012130141258239746,0.00027092453092336655,0.0005946164019405842,-0.0009134648717008531,0.021354966,57.043552,Clouds
134930.569,-0.004062730818986893,-0.003930187318474054,-0.0002518296241760254,0.0021811870392411947,0.002021250082179904,0.0008593291859142482,0.019832391,57.043552,Clouds
134930.598,-0.005210567265748978,-0.00366989616304636,-0.00034368038177490234,0.000233012018725276,0.0008009703597053885,-0.0027675163000822067,0.019230919,57.043552,Clouds
134930.628,-0.0052514392882585526,-0.00448174262419343,-0.0009840130805969238,-9.189406409859657e-05,0.0009199236519634724,-0.0012340383836999536,0.017511345,57.043552,Clouds
134930.658,-0.004129460081458092,-0.0045885443687438965,-0.000969231128692627,0.0016266957391053438,0.0003979483153671026,8.145946776494384e-05,0.016796587,57.043552,Clouds
134930.693,-0.0041348133236169815,-0.0037768434267491102,-0.0014728307723999023,-0.0007710009813308716,4.3824104068335146e-05,-0.0003164076479151845,0.015352852,57.043552,Clouds
134930.718,-0.004670079797506332,-0.0038741077296435833,0.00029736757278442383,0.0007734985556453466,0.0010738895507529378,0.0012687805574387312,0.014516654,57.043552,Clouds
134930.747,-0.004209047183394432,-0.0038940110243856907,-0.0005718469619750977,0.0035149352625012398,-0.003487521084025502,0.0008281096233986318,0.01379011,57.043552,Clouds
134930.778,-0.004788314923644066,-0.004215823486447334,0.00019109249114990234,-0.000956967007368803,-0.0001748678769217804,0.00019792909733951092,0.0134015,57.043552,Clouds
134930.808,-0.004690308123826981,-0.003923298325389624,-0.0005870461463928223,0.0008648303337395191,0.0015946272760629654,-0.0019742860458791256,0.02773405,57.043552,Clouds
134930.838,-0.0040967464447021484,-0.003978325519710779,-0.0013192296028137207,0.0010767912026494741,-0.0006063191685825586,0.0013419955503195524,0.036013763,57.043552,Clouds
134930.867,-0.005144855007529259,-0.004250727593898773,0.0010001659393310547,0.00015790783800184727,0.0001806674263207242,-0.0002190399682149291,0.153381,57.043552,Clouds
134930.897,-0.004995353519916534,-0.004112791735678911,-0.0011819005012512207,0.000421448377892375,0.00023644368047825992,0.00036903307773172855,0.14531037,57.043552,Clouds
134930.927,-0.003759050741791725,-0.0035428425762802362,0.0005878210067749023,0.0018532946705818176,-0.001792666269466281,0.0013493984006345272,0.13433044,57.043552,Clouds
134930.957,-0.003921125084161758,-0.005398659501224756,0.003486812114715576,0.002624441869556904,0.0026999416295439005,0.0010715131647884846,0.12982696,57.043552,Clouds
134930.986,-0.0043325275182724,-0.006106781307607889,-0.0036537647247314453,-0.0008280084002763033,-0.001296753529459238,0.0009038039133884013,0.118023746,57.043552,Clouds
134931.016,-0.004042927175760269,-0.0038309921510517597,0.0008778572082519531,-0.0018268305575475097,-0.000801082409452647,0.001403345726430416,0.0969685,57.043552,Clouds
134931.046,-0.004712685942649841,-0.0032636288087815046,0.0013508200645446777,0.0004754618275910616,-0.0013529638526961207,0.0008540980634279549,0.0900886,57.043552,Clouds
134931.076,-0.005420336499810219,-0.004250618629157543,0.0002065896987915039,0.0006866194307804108,0.002600807463750243,-0.00031711574411019683,0.079241335,57.043552,Clouds
134931.106,-0.004279132932424545,-0.004565099254250526,-0.0016092658042907715,0.0007182275876402855,-0.0002967929467558861,0.0006613247678615153,0.074858256,57.043552,Clouds
134931.136,-0.0031452104449272156,-0.003916380926966667,0.0004814267158508301,0.002236325992271304,-0.0001170758914668113,-0.0004967662389390171,0.07086706,57.043552,Clouds
134931.165,-0.003951543942093849,-0.003944678232073784,-0.00022023916244506836,0.002265340881422162,-0.00017352458962704986,0.0020699389278888702,0.06701295,57.043552,Clouds
134931.195,-0.004764396697282791,-0.0044593228958547115,0.0032128095626831055,0.00015647336840629578,-0.0001868811232270673,-2.9138580430299044e-05,0.066168554,57.043552,Clouds
134931.225,-0.004699068143963814,-0.005127463955432177,0.0010458827018737793,0.0015872269868850708,0.00022460901527665555,0.00109958928078413,0.06504904,57.043552,Clouds
134931.255,-0.0032825805246829987,-0.00498295808210969,-0.0009531378746032715,-0.0011351779103279114,-0.0013054689625278115,-0.001109331613406539,0.0668392,57.043552,Clouds
134931.285,-0.0029717274010181427,-0.0034187184646725655,0.0018698573112487793,1.0670628398656845e-05,-0.0020926911383867264,0.00022179674124345183,0.07416825,57.043552,Clouds
134931.315,-0.005678115412592888,-0.0038369339890778065,0.00173264741897583,0.0007577326614409685,-0.0006995622534304857,-0.0038267835043370724,0.14660966,57.043552,Clouds
134931.344,-0.006067952141165733,-0.004027457907795906,-0.0006165504455566406,0.002389042405411601,0.00033413743949495256,-0.003212327603250742,0.13758188,57.043552,Clouds
134931.374,-0.0031218118965625763,-0.004396946169435978,2.4318695068359375e-05,-0.002456060377880931,-0.00027785031124949455,-7.515965262427926e-05,0.13370894,57.043552,Clouds
134931.404,-0.0036317314952611923,-0.004268830642104149,-0.0005096197128295898,0.0007937517948448658,-0.0005320728523656726,0.00016732537187635899,0.13197789,57.043552,Clouds
134931.434,-0.00572359561920166,-0.0037553277797997,-0.0013031363487243652,0.0034906920045614243,0.0015989801613613963,-0.0019572365563362837,0.13092725,57.043552,Clouds
134931.463,-0.004307527095079422,-0.0038409545086324215,-0.0010587573051452637,0.000483435345813632,0.0008644884219393134,-0.0014619596768170595,0.120320976,57.043552,Clouds
134931.493,-0.003714008256793022,-0.0034099468030035496,-0.0008150339126586914,0.003556614276021719,0.000418667565099895,0.0011358173796907067,0.11746146,57.043552,Clouds
134931.523,-0.005355628207325935,-0.0045248595997691154,-0.0005405545234680176,-0.0003023811150342226,0.0022181642707437277,-0.0008463517297059298,0.11456815,57.043552,Clouds
134931.553,-0.003616141155362129,-0.0036975503899157047,-0.00012832880020141602,-0.0006490473169833422,0.00038874021265655756,0.001068512094207108,0.1132653,57.043552,Clouds
134931.583,-0.004517383873462677,-0.0029833910521119833,-0.0008760690689086914,0.0023035304620862007,-0.00034021231113001704,0.001827712869271636,0.10541435,57.043552,Clouds
134931.613,-0.003794221207499504,-0.0042036729864776134,-0.0014249086380004883,0.0008303015492856503,0.0014426126144826412,0.000692674599122256,0.09338199,57.043552,Clouds
134931.643,-0.0032072216272354126,-0.004615697544068098,-0.0006005167961120605,-0.0017527752788737416,0.00042297644540667534,-0.0009671946172602475,0.09334481,57.043552,Clouds
134931.672,-0.00506005622446537,-0.0033238267060369253,0.001170337200164795,0.0002916299272328615,0.00040446053026244044,-0.00029270374216139317,0.10645528,57.043552,Clouds
134931.702,-0.005968272686004639,-0.002923218999058008,-0.0005993247032165527,0.0014273119159042835,-0.00033828793675638735,-0.00039141287561506033,0.12293965,57.043552,Clouds
134931.732,-0.005206527188420296,-0.0032832936849445105,0.00011795759201049805,-0.0013810149393975735,7.063192606437951e-05,0.0003025716869160533,0.11506312,57.043552,Clouds
134931.762,-0.004207439720630646,-0.0035688772331923246,0.00040799379348754883,0.003523315070196986,0.0005844304105266929,0.0007073753513395786,0.099918425,57.043552,Clouds
134931.792,-0.004045214504003525,-0.0034511310514062643,0.00022459030151367188,-0.0018556010909378529,0.0014740241458639503,-0.0018956316635012627,0.09094206,57.043552,Clouds
134931.821,-0.004009304568171501,-0.003615087829530239,0.0005451440811157227,-0.0014462093822658062,-0.0005114278174005449,-0.0004125337000004947,0.07506525,57.043552,Clouds
134931.851,-0.00413108617067337,-0.003295508213341236,0.0004844069480895996,-0.0012189571280032396,0.000708595965988934,-0.0005501004634425044,0.07282266,57.043552,Clouds
134931.881,-0.004141831770539284,-0.003722365479916334,2.676248550415039e-05,-0.0026623609010130167,0.0010799297597259283,-0.00045161612797528505,0.07460094,57.043552,Clouds
134931.911,-0.0036282818764448166,-0.003495348384603858,-0.0003082156181335449,-0.0007105076219886541,-4.936588084092364e-05,-0.002788713201880455,0.08347471,57.043552,Clouds
134931.941,-0.00398038886487484,-0.0033689558040350676,-0.0009337067604064941,0.0018150792457163334,0.0008723996579647064,-7.936259498819709e-05,0.10133064,57.043552,Clouds
134931.971,-0.003244880586862564,-0.003324327291920781,-0.0008271336555480957,-0.0005960953421890736,0.0032394437585026026,0.000525418552570045,0.10128949,57.043552,Clouds
134932.001,-0.004672784358263016,-0.003498824080452323,0.0002716183662414551,-0.0009126036893576384,0.001392679987475276,0.0019538444466888905,0.0937431,57.043552,Clouds
134932.030,-0.005009924992918968,-0.004182746633887291,1.1742115020751953e-05,-0.0003910406958311796,0.002049823757261038,-0.000755990797188133,0.08539979,57.043552,Clouds
134932.060,-0.002779357135295868,-0.003987545147538185,-0.00021690130233764648,-0.0016295943642035127,0.0023574114311486483,0.002136392518877983,0.072990224,57.043552,Clouds
134932.089,-0.004784848541021347,-0.0027073011733591557,0.0003788471221923828,-0.002138724084943533,0.0015325889689847827,-0.0005968950572423637,0.07093771,57.043552,Clouds
134932.120,-0.005410661920905113,-0.0032230084761977196,0.00027173757553100586,0.0016303302254527807,-4.2434643546584994e-05,-0.0020033977925777435,0.12738307,57.043552,Clouds
134932.149,-0.0031114351004362106,-0.0034091020934283733,-0.002291738986968994,-0.00031160609796643257,-0.00026016670744866133,-0.0007151832105591893,0.12562078,57.043552,Clouds
134932.179,-0.0043614208698272705,-0.003599416697397828,-0.0010557770729064941,-0.0006873616948723793,0.0013806006172671914,0.000581981847062707,0.11722594,57.043552,Clouds
134932.210,-0.005628302693367004,-0.004562418907880783,0.0011109709739685059,0.0013600485399365425,0.0018646245589479804,0.0018076141132041812,0.106571645,57.043552,Clouds
134932.239,-0.0036535710096359253,-0.0036887729074805975,8.869171142578125e-05,0.0008541846182197332,-0.0009579863399267197,-0.00025222881231456995,0.09989953,57.043552,Clouds
134932.269,-0.002524537965655327,-0.0038935502525418997,-0.0017573833465576172,0.0025262925773859024,0.0017109985928982496,-0.0005072034546174109,0.08492768,57.043552,Clouds
134932.299,-0.0044853575527668,-0.004195577930659056,-0.0005670785903930664,0.0006242331583052874,0.0014617483830079436,0.0010409061796963215,0.07664557,57.043552,Clouds
134932.329,-0.005319969728589058,-0.003735228208824992,5.829334259033203e-05,-0.0009186486713588238,0.0003353308420628309,0.0016088476404547691,0.07035737,57.043552,Clouds
134932.359,-0.003457270562648773,-0.00338619202375412,-0.001223444938659668,-0.00255521759390831,0.00047107000136747956,-0.0007462616777047515,0.06576962,57.043552,Clouds
134932.388,-0.003341851755976677,-0.0031039337627589703,0.00043976306915283203,-0.002195766195654869,-0.0011897957883775234,0.0008491050102747977,0.06020963,57.043552,Clouds
134932.418,-0.005132587626576424,-0.003934091422706842,-0.00027751922607421875,0.0024281423538923264,0.00013498883345164359,0.0009218958439305425,0.052832987,57.043552,Clouds
134932.448,-0.003651171922683716,-0.003866949351504445,-0.0023221373558044434,0.0005455526988953352,-0.0025432556867599487,-0.0003538742894306779,0.050308634,57.043552,Clouds
134932.478,-0.002785800024867058,-0.002504794392734766,0.00027251243591308594,-0.0007051187567412853,-4.00898716179654e-05,0.001281851902604103,0.050062757,57.043552,Clouds
134932.508,-0.005499459803104401,-0.0036688020918518305,-0.0010549426078796387,-0.00015778257511556149,-0.001128809293732047,0.0009918833384290338,0.048348956,57.043552,Clouds
134932.538,-0.004318548366427422,-0.0037024347111582756,-0.001283407211303711,-0.0011521917767822742,-0.0022795461118221283,0.0016092326259240508,0.04517041,57.043552,Clouds
134932.567,-0.003398023545742035,-0.003834186354652047,0.00019699335098266602,0.0009025868494063616,-0.00048264212091453373,-1.3456621672958136e-05,0.03800376,57.043552,Clouds
134932.597,-0.003110559657216072,-0.0027264126110821962,-0.0014358162879943848,-0.001330612343735993,-0.00034199003130197525,0.0015655477764084935,0.035299156,57.043552,Clouds
134932.627,-0.006089739501476288,-0.0037994065787643194,-0.0007791519165039062,-0.0007250711787492037,-0.002152472035959363,-9.084149496629834e-05,0.032687433,57.043552,Clouds
134932.657,-0.0044059958308935165,-0.0036271612625569105,-0.00018399953842163086,4.4689513742923737e-05,0.0009419828420504928,-0.0006339086685329676,0.028978765,57.043552,Clouds
134932.687,-0.0021918341517448425,-0.0030070808716118336,-4.696846008300781e-05,0.0015667588450014591,-0.0007452056161127985,0.0004005227528978139,0.05195153,57.043552,Clouds
134932.716,-0.0040473975241184235,-0.0031745382584631443,-0.0014964938163757324,-0.0010015349835157394,-0.0009029709617607296,0.0008571280632168055,0.046607528,57.043552,Clouds
134932.746,-0.005701236426830292,-0.004665035288780928,-0.0011300444602966309,-0.0018090320518240333,-0.0029806680977344513,-0.00015891884686425328,0.043835737,57.043552,Clouds
134932.776,-0.003447471186518669,-0.002721797674894333,-0.0006264448165893555,-0.004297206178307533,-0.0006768428138457239,0.0003857693518511951,0.04129307,57.043552,Clouds
134932.806,-0.0031975526362657547,-0.002042728243395686,-0.0011448264122009277,-0.00239051366224885,-0.0014644520124420524,0.0005193843971937895,0.06387098,57.043552,Clouds
134932.836,-0.004925737157464027,-0.003695355262607336,-0.00045752525329589844,0.0008821503724902868,-0.0011530043557286263,0.0005868277512490749,0.104192786,57.043552,Clouds
134932.866,-0.0053330957889556885,-0.0030767302960157394,-0.00010687112808227539,0.002417631447315216,-0.00033709133276715875,-0.0007426211377605796,0.09637784,57.043552,Clouds
134932.895,-0.0019641872495412827,-0.002360448008403182,-0.00015294551849365234,0.001061801565811038,0.0002562464796938002,0.0006285703275352716,0.08992828,57.043552,Clouds
134932.925,-0.0037531591951847076,-0.004091000184416771,-7.617473602294922e-05,-0.0030234374571591616,0.0009976242436096072,0.0014709332026541233,0.08254107,57.043552,Clouds
134932.955,-0.005792388692498207,-0.004149902146309614,-0.0005186796188354492,-0.002400859259068966,0.001167226117104292,-0.0006469826330430806,0.07340611,57.043552,Clouds
134932.985,-0.0039008520543575287,-0.0032703252509236336,-0.0012055635452270508,9.257346391677856e-06,0.0001900308416225016,-0.0011752304853871465,0.06836386,57.043552,Clouds
134933.015,-0.002415809780359268,-0.0031030667014420033,-0.0009000897407531738,0.0014253852423280478,0.0008137988625094295,-0.0003334718057885766,0.07272382,57.043552,Clouds
134933.044,-0.004772743210196495,-0.004040068481117487,-0.001846015453338623,0.0009567583911120892,0.0005448650335893035,0.000648916291538626,0.068255916,57.043552,Clouds
134933.074,-0.004916682839393616,-0.0036653815768659115,-0.0006862282752990723,-0.004494604654610157,0.002742040902376175,-0.0008607491618022323,0.06452514,57.043552,Clouds
134933.105,-0.0025719106197357178,-0.0023950734175741673,0.0001531839370727539,-0.0012431044597178698,-0.0009710317826829851,0.00250514829531312,0.057532117,57.043552,Clouds
134933.134,-0.003657745197415352,-0.0031498358584940434,0.0010231733322143555,0.001495160860940814,0.0003132909769192338,-0.00047783367335796356,0.053528097,57.043552,Clouds
134933.164,-0.0058198608458042145,-0.0035840445198118687,-0.0005789995193481445,0.0002507029566913843,0.001622356940060854,-0.0013878983445465565,0.050670985,57.043552,Clouds
134933.194,-0.004433885216712952,-0.003241347847506404,1.609325408935547e-05,0.001197704579681158,-1.3989818398840725e-05,0.0004311639931984246,0.049413692,57.043552,Clouds
134933.224,-0.0032855402678251266,-0.0038666094187647104,-0.0007620453834533691,-0.00039565027691423893,-0.0016767405904829502,-0.00041805714135989547,0.06951123,57.043552,Clouds
134933.254,-0.004305446520447731,-0.002629548776894808,-0.00018221139907836914,-0.00016653118655085564,0.001001650234684348,-0.0002859699307009578,0.061950304,57.043552,Clouds
134933.283,-0.003630397841334343,-0.0032077650539577007,-0.0015398859977722168,0.00046175275929272175,0.0007170974276959896,-0.0009018064592964947,0.058791984,57.043552,Clouds
134933.313,-0.003804028034210205,-0.0033668214455246925,0.0003978610038757324,-0.0005158474668860435,0.002028923947364092,-0.001332074636593461,0.053290553,57.043552,Clouds
134933.343,-0.004182068631052971,-0.004012604244053364,0.0001995563507080078,-0.0029984847642481327,-0.0003526617947500199,0.0002556278486736119,0.050283384,57.043552,Clouds
134933.373,-0.005229908972978592,-0.00440518744289875,0.0010388493537902832,0.0024668064434081316,-7.189737516455352e-05,-0.0004115015035495162,0.04648786,57.043552,Clouds
134933.403,-0.004354152828454971,-0.003453267505392432,-0.004469454288482666,0.0007836655713617802,-0.0004970223526470363,0.0001812197151593864,0.04053482,57.043552,Clouds
134933.432,-0.0028876084834337234,-0.002573517384007573,0.0006882548332214355,0.001418790314346552,0.0003110023681074381,0.0004158560768701136,0.03876381,57.043552,Clouds
134933.462,-0.003483753651380539,-0.0032556806690990925,-0.0010360479354858398,-0.000675905728712678,0.0009497975697740912,0.00118551729246974,0.033983707,57.043552,Clouds
134933.492,-0.004275288432836533,-0.0027463145088404417,9.351968765258789e-05,-0.00397321954369545,0.0012962098699063063,-0.001032408676110208,0.033558194,57.043552,Clouds
134933.522,-0.003776777535676956,-0.003218401223421097,-0.0006997585296630859,-0.00020663929171860218,0.0007804264314472675,0.0011628253851085901,0.03318993,57.043552,Clouds
134933.551,-0.004616597667336464,-0.0040332237258553505,-0.0010808110237121582,0.0009776786901056767,-0.002314862562343478,-0.00031907251104712486,0.05035041,57.043552,Clouds
134933.581,-0.004219185560941696,-0.002630849601700902,-0.0004550814628601074,-0.0011908704182133079,-0.00018693620222620666,-0.000913393625523895,0.05401103,57.043552,Clouds
134933.611,-0.0037412289530038834,-0.0026755176950246096,-0.00013458728790283203,0.0008823471143841743,0.003092174418270588,0.0012105429777875543,0.054423586,57.043552,Clouds
134933.641,-0.0039332229644060135,-0.0026678601279854774,0.00010985136032104492,0.001224030740559101,-0.0004147632862441242,-0.00045251339906826615,0.053284556,57.043552,Clouds
134933.671,-0.0034206174314022064,-0.0028713755309581757,-0.00010383129119873047,0.002060418017208576,-0.0005090372869744897,0.0008349189884029329,0.050989155,57.043552,Clouds
134933.701,-0.002633368596434593,-0.0026303022168576717,0.00041556358337402344,0.0010739162098616362,0.0011578407138586044,0.0009936289861798286,0.045787036,57.043552,Clouds
134933.731,-0.003936588764190674,-0.0036524285096675158,0.0008581280708312988,2.005184069275856e-05,0.001136469654738903,-0.0006934617995284498,0.04452368,57.043552,Clouds
134933.760,-0.00405510701239109,-0.003349674865603447,-0.0008203983306884766,0.0002350041177123785,-0.001396545791067183,0.0015230868011713028,0.052373555,57.043552,Clouds
134933.790,-0.003073332831263542,-0.003986980766057968,-0.0016290545463562012,-0.00020612962543964386,5.19731838721782e-05,0.001400149893015623,0.049502328,57.043552,Clouds
134933.820,-0.0030138082802295685,-0.0024557390715926886,-0.00033217668533325195,-0.0008197894785553217,-0.0009448420023545623,0.0003334476496092975,0.04521235,57.043552,Clouds
134933.850,-0.0034058988094329834,-0.002728936728090048,-0.000682532787322998,-0.0011671466054394841,-0.002450072905048728,0.0010463730432093143,0.039022077,57.043552,Clouds
134933.880,-0.003947550430893898,-0.003357243724167347,0.0008436441421508789,0.002652202034369111,-0.00027016247622668743,-0.00024445250164717436,0.035838645,57.043552,Clouds
134933.910,-0.002979537472128868,-0.0030657958704978228,-0.0002396702766418457,0.00033276784233748913,-0.0015694124158471823,0.00031267848680727184,0.030718874,57.043552,Clouds
134933.940,-0.00310441292822361,-0.003962737508118153,9.632110595703125e-05,0.0012622789945453405,-0.0003874704707413912,-0.0016666636802256107,0.028281601,57.043552,Clouds
134933.969,-0.004461687058210373,-0.003959929570555687,-0.0006061792373657227,-0.0023753803689032793,0.0011628862703219056,-0.000507388380356133,0.026312087,57.043552,Clouds
134933.999,-0.0039023254066705704,-0.002475753193721175,-0.00027060508728027344,-0.0019736257381737232,-3.694632323458791e-05,-0.0008179961005225778,0.022787511,57.043552,Clouds
134934.029,-0.001946793869137764,-0.0028578792698681355,-0.0002709031105041504,-0.00020176172256469727,-0.0007519418140873313,-2.928340109065175e-05,0.02150287,57.043552,Clouds
134934.059,-0.004054192453622818,-0.002801846247166395,0.0002631545066833496,0.0013511457946151495,-3.597249451559037e-05,-0.00011738011380657554,0.022573868,57.043552,Clouds
134934.088,-0.003331027925014496,-0.002939125057309866,0.0011481642723083496,0.00014908844605088234,-0.0015721780946478248,0.0005313867004588246,0.021927228,57.043552,Clouds
134934.118,-0.0033321212977170944,-0.0025471115950495005,0.0006141066551208496,-0.0033272523432970047,-0.0008420107187703252,0.00026803664513863623,0.02637953,57.043552,Clouds
134934.148,-0.0024900883436203003,-0.00265218666754663,-0.00014859437942504883,0.0002819555811583996,0.0010623778216540813,-0.0016059980262070894,0.025233211,57.043552,Clouds
134934.178,-0.0028916988521814346,-0.0018006798345595598,-0.0008808374404907227,0.0011199931614100933,6.238782953005284e-05,-0.0019276797538623214,0.023265593,57.043552,Clouds
134934.208,-0.003003515303134918,-0.0032996272202581167,-0.0006060004234313965,-0.001372191240079701,-0.0004998501390218735,-0.0020438870415091515,0.021816619,57.043552,Clouds
134934.238,-0.0040700361132621765,-0.0024741399101912975,-7.164478302001953e-05,0.003030475229024887,0.0003981148765888065,3.704155096784234e-05,0.020205878,57.043552,Clouds
134934.267,-0.0041068363934755325,-0.0037415812257677317,0.0007522702217102051,-0.0021619368344545364,0.0021216359455138445,0.0007437055464833975,0.023766285,57.043552,Clouds
134934.297,-0.003349609673023224,-0.00212490139529109,0.0002485513687133789,0.0014610635116696358,-0.001394039485603571,0.00041737695573829114,0.028512768,57.043552,Clouds
134934.327,-0.00356488861143589,-0.0033122978638857603,-0.001536548137664795,-0.00038237590342760086,-0.0006556462030857801,-3.9670150727033615e-05,0.026315937,57.043552,Clouds
134934.357,-0.0036378223448991776,-0.0030917662661522627,0.00029456615447998047,0.0014517526142299175,0.00023976580996531993,-0.0006305656279437244,0.024278073,57.043552,Clouds
134934.387,-0.0028996262699365616,-0.0031090674456208944,0.0007979273796081543,0.002465257653966546,0.0023642373271286488,0.00010718085104599595,0.022158107,57.043552,Clouds
134934.416,-0.003914566710591316,-0.0023405347019433975,-0.0006971359252929688,-0.0011471142061054707,-0.0010405417997390032,-0.0022366028279066086,0.040090263,57.043552,Clouds
134934.446,-0.004041677340865135,-0.002452649176120758,0.000707089900970459,-0.0011359055060893297,-0.0015886561013758183,0.0004461755743250251,0.05341348,57.043552,Clouds
134934.476,-0.00308363139629364,-0.0030391570180654526,-5.543231964111328e-05,-0.001861082622781396,0.0003503912012092769,0.0009967695223167539,0.08559216,57.043552,Clouds
134934.506,-0.0030056387186050415,-0.002836689120158553,-0.00016176700592041016,-0.00021494366228580475,0.0010663592256605625,-0.00011887360597029328,0.08258755,57.043552,Clouds
134934.536,-0.004316803067922592,-0.0027421200647950172,-0.00034499168395996094,-0.0013430817052721977,-0.0008289826801046729,-0.002804865362122655,0.07587007,57.043552,Clouds
134934.566,-0.0027308184653520584,-0.0029693401884287596,-0.0004056096076965332,0.0027007663156837225,-0.001630915328860283,-0.0008817235357128084,0.07308359,57.043552,Clouds
134934.596,-0.002232002094388008,-0.0023765757214277983,-0.00037473440170288086,0.0008627444040030241,0.0013390353415161371,0.00037415296537801623,0.064293854,57.043552,Clouds
134934.625,-0.0035944487899541855,-0.0027085188776254654,0.0005409717559814453,-3.225891850888729e-05,0.002287413226440549,0.0009588210959918797,0.0614936,57.043552,Clouds
134934.655,-0.004295704886317253,-0.002303904853761196,-0.0006650686264038086,-0.0005463443230837584,0.0008597341366112232,0.0011057642986997962,0.06563397,57.043552,Clouds
134934.685,-0.0033441949635744095,-0.0023858007043600082,-0.0009093880653381348,0.0008199652656912804,0.00016467648674733937,-6.0421181842684746e-05,0.058417734,57.043552,Clouds
134934.715,-0.0029381047934293747,-0.0028993061278015375,-0.001367032527923584,-0.0003910060040652752,0.0015803478891029954,0.0012262200471013784,0.056515608,57.043552,Clouds
134934.745,-0.004708176478743553,-0.002689953660592437,-0.0009849071502685547,0.0004171764012426138,-0.0013142777606844902,0.0021241309586912394,0.07930039,57.043552,Clouds
134934.774,-0.0033162403851747513,-0.002322326647117734,6.973743438720703e-06,0.0008386801928281784,0.001992535777390003,-0.001130186952650547,0.07657451,57.043552,Clouds
134934.804,-0.0016067977994680405,-0.002325412118807435,-0.0009999871253967285,-0.001530937966890633,-0.0010366797214373946,-0.0027939213905483484,0.073638655,57.043552,Clouds
134934.834,-0.0048078130930662155,-0.002948748879134655,-0.00026726722717285156,-0.0005284170620143414,0.000720642798114568,0.0014703664928674698,0.06473183,57.043552,Clouds
134934.864,-0.004799438640475273,-0.003297958057373762,-2.3305416107177734e-05,0.0002877814695239067,0.0019892032723873854,0.0007202798151411116,0.059484825,57.043552,Clouds
134934.894,-0.002191483974456787,-0.0020064886193722486,-0.00017565488815307617,-0.001352850697003305,0.0011914994101971388,0.0005530581111088395,0.0514141,57.043552,Clouds
134934.924,-0.002398001030087471,-0.002428256906569004,-0.000603020191192627,0.0019137533381581306,0.0034377295523881912,-0.00021965103223919868,0.04835575,57.043552,Clouds
134934.953,-0.004426583647727966,-0.0029630474746227264,5.316734313964844e-05,9.101675823330879e-05,-0.0017590350471436977,0.0005028414889238775,0.08922695,57.043552,Clouds
134934.983,-0.003298521041870117,-0.002828652737662196,-0.0010305047035217285,-0.005688561592251062,0.0002053637581411749,-0.0024420651607215405,0.08511027,57.043552,Clouds
134935.013,-0.002535153180360794,-0.002385656349360943,0.00043463706970214844,-0.00037066545337438583,0.00029212888330221176,0.00014134286902844906,0.09053439,57.043552,Clouds
134935.043,-0.003933478146791458,-0.0025128955021500587,0.00014460086822509766,-0.0012806443264707923,0.0022722899448126554,0.0005506547167897224,0.08225792,57.043552,Clouds
134935.072,-0.0048163458704948425,-0.0027525480836629868,-0.0013050436973571777,6.053387187421322e-05,0.00172787148039788,0.0005003902479074895,0.07759678,57.043552,Clouds
134935.103,-0.0024163275957107544,-0.0026962971314787865,0.000510871410369873,-0.001309094252064824,0.0020474803168326616,-0.0010214627254754305,0.07489753,57.043552,Clouds
134935.132,-0.0026600006967782974,-0.0029387909453362226,-0.0005114078521728516,8.525862358510494e-05,0.0004528817080426961,-0.0005082415882498026,0.06911365,57.043552,Clouds
134935.162,-0.005803760141134262,-0.0018466636538505554,0.02451223134994507,0.0010129779111593962,0.005924323108047247,-6.319850217550993e-05,0.0637769,57.043552,Clouds
134935.192,-0.003821941092610359,-0.0012838386464864016,0.012672483921051025,-0.00046045402996242046,-0.0005507416790351272,-0.00023223209427669644,0.070226595,57.043552,Clouds
134935.222,0.00016844645142555237,-0.006265484262257814,-0.026283323764801025,-0.0002886117435991764,-0.0008100079721771181,0.0004450319684110582,0.067881055,57.043552,Clouds
134935.252,-0.002742445096373558,-0.007005161140114069,0.0008473992347717285,0.00012082397006452084,7.924411329440773e-05,0.00017920893151313066,0.06298332,57.043552,Clouds
134935.282,-0.004326146095991135,0.0001998601946979761,0.01038438081741333,0.0001603919081389904,0.0012245653197169304,-0.0008542691357433796,0.08877442,57.043552,Clouds
134935.311,-0.003938475623726845,0.00043519935570657253,-0.0022802352905273438,0.00024229218252003193,-0.00042976869735866785,0.0008897358784452081,0.08318395,57.043552,Clouds
134935.341,-0.0030645225197076797,-0.004507690668106079,-0.004828393459320068,-0.0006283086258918047,7.392460247501731e-05,-0.0008590107318013906,0.07528257,57.043552,Clouds
134935.371,-0.002386605367064476,-0.0040790606290102005,0.0005581378936767578,1.1437572538852692e-05,0.0007206823211163282,0.0007531328010372818,0.06981346,57.043552,Clouds
134935.401,-0.0018604137003421783,-0.0006421592552214861,0.0007565617561340332,-0.001351632527075708,-0.0003737312217708677,0.0012149717658758163,0.06386765,57.043552,Clouds
134935.431,-0.0032898690551519394,-0.001353676663711667,-0.0009676814079284668,-0.002368312329053879,-0.000658873119391501,-0.0003613529843278229,0.05373279,57.043552,Clouds
134935.460,-0.003794269636273384,-0.0033111367374658585,-0.0007541179656982422,-0.0009733315091580153,-0.0006621272768825293,0.0007941132644191384,0.048983347,57.043552,Clouds
134935.490,-0.002946985885500908,-0.003350552637130022,0.0008634328842163086,0.0025493355933576822,0.0002275533915963024,-0.0016932589933276176,0.04181719,57.043552,Clouds
134935.520,-0.002256711944937706,-0.0020946364384144545,0.0003446340560913086,-0.0006002143491059542,-0.002320346422493458,-0.0004359734011813998,0.038439162,57.043552,Clouds
134935.550,-0.0038397368043661118,-0.0033170152455568314,-0.000586390495300293,-0.0012653531739488244,-0.0001341729366686195,-0.0008166581392288208,0.035587583,57.043552,Clouds
134935.580,-0.003589751198887825,-0.003558637574315071,-0.0003426074981689453,0.0017608166672289371,0.000772012397646904,0.00023184751626104116,0.030048737,57.043552,Clouds
134935.610,-0.002461319789290428,-0.0030698564369231462,0.0012598633766174316,-0.0005606433842331171,-0.00016865163343027234,-0.0024823432322591543,0.027934399,57.043552,Clouds
134935.640,-0.0031719189137220383,-0.0021638572216033936,-0.0007696747779846191,-0.0013277025427669287,0.0002608879003673792,-0.0027660366613417864,0.025929267,57.043552,Clouds
134935.669,-0.004003312438726425,-0.0029229475185275078,-0.00150221586227417,-5.0972215831279755e-05,-0.0019204203272238374,0.0011839192593470216,0.025250167,57.043552,Clouds
134935.699,-0.004559140652418137,-0.002915480872616172,0.0013512969017028809,0.002501885872334242,-0.00043800228741019964,-0.0018292919266968966,0.023978172,57.043552,Clouds
134935.729,-0.002830568701028824,-0.0014516511000692844,0.00025260448455810547,-0.000609877984970808,-0.001031592139042914,7.302308222278953e-05,0.021875642,57.043552,Clouds
134935.759,-0.0029146987944841385,-0.002627971349284053,-0.0009678006172180176,0.0014001394156366587,-0.0011553855147212744,-0.0012887530028820038,0.026561014,57.043552,Clouds
134935.788,-0.004446905106306076,-0.0034097679890692234,-0.0012115836143493652,-0.002322608605027199,-0.00037228839937597513,-0.0020302787888795137,0.03319404,57.043552,Clouds
134935.818,-0.003466567024588585,-0.0026020044460892677,0.0015508532524108887,-0.001750089693814516,-0.0010739050339907408,-0.003021637676283717,0.03128767,57.043552,Clouds
134935.848,-0.0019308701157569885,-0.0012544351629912853,-0.0005704760551452637,-0.0006618639454245567,-0.0004153769987169653,-0.002941874321550131,0.04714261,57.043552,Clouds
134935.878,-0.003770548850297928,-0.0022080736234784126,0.0005584359169006348,0.0007392617408186197,-0.000586633977945894,0.001432674704119563,0.058714747,57.043552,Clouds
134935.908,-0.004048407077789307,-0.002926249522715807,-0.0004944205284118652,0.001294921850785613,0.000570264644920826,-0.0017727576196193695,0.058680978,57.043552,Clouds
134935.938,-0.002833651378750801,-0.002924353815615177,-0.000265657901763916,-5.190703086555004e-05,-0.0003589415573514998,0.0020024243276566267,0.06183215,57.043552,Clouds
134935.968,-0.0019597988575696945,-0.0018472217489033937,-2.1576881408691406e-05,0.0020251967944204807,0.0005384715623222291,0.0005957815446890891,0.057778172,57.043552,Clouds
134935.997,-0.004100458696484566,-0.0026501892134547234,0.0001004338264465332,0.0008507291786372662,0.00023633382807020098,0.0008953107753768563,0.053671822,57.043552,Clouds
134936.027,-0.003984401002526283,-0.0029341275803744793,-0.0005708932876586914,0.0036973347887396812,0.0005420505185611546,0.0009947672951966524,0.047097523,57.043552,Clouds
134936.057,-0.0023689046502113342,-0.0016695600934326649,-0.0012270808219909668,0.0020921442192047834,-0.0003680325171444565,0.0009333720081485808,0.043099076,57.043552,Clouds
134936.086,-0.0027151647955179214,-0.0019965791143476963,3.93986701965332e-05,0.002047924557700753,0.000907266279682517,-0.0021784596610814333,0.037096452,57.043552,Clouds
134936.117,-0.0032542943954467773,-0.0031991051509976387,-0.0005098581314086914,-0.002190683502703905,-0.000498872366733849,0.0002883565321099013,0.03414243,57.043552,Clouds
134936.146,-0.0037285108119249344,-0.00289468327537179,0.0005737543106079102,-0.0034319465048611164,-0.0005720033077523112,-0.00024271936854347587,0.031345543,57.043552,Clouds
134936.176,-0.002599285915493965,-0.002045778091996908,0.00020802021026611328,0.0011481582187116146,-0.0013707609614357352,0.0013097933260723948,0.028378509,57.043552,Clouds
134936.206,-0.0027733612805604935,-0.002543131820857525,-0.0010273456573486328,0.000702983234077692,-0.00011858339712489396,3.959552850574255e-05,0.027023612,57.043552,Clouds
134936.236,-0.0036065122112631798,-0.0031448001973330975,0.0005751252174377441,0.001834148308262229,0.00013824703637510538,-0.00017694465350359678,0.023799095,57.043552,Clouds
134936.266,-0.002243073657155037,-0.0014682740438729525,0.0004833340644836426,0.0001144923735409975,3.474279947113246e-05,-0.0005374116590246558,0.023712363,57.043552,Clouds
134936.296,-0.0019356673583388329,-0.0020963873248547316,-0.0010426640510559082,0.000502861337736249,7.791792450007051e-05,0.0011846632696688175,0.022311026,57.043552,Clouds
134936.326,-0.005019846372306347,-0.0013595987111330032,-0.005284428596496582,-0.0011118787806481123,-0.0017251494573429227,-0.00024750130251049995,0.020007959,57.043552,Clouds
134936.355,-0.00397846195846796,-0.0016397638246417046,-0.004521369934082031,-0.001341521623544395,0.000535891973413527,0.0006111124530434608,0.018477524,57.043552,Clouds
134936.385,-0.0018191253766417503,-0.0021139909513294697,0.0009413361549377441,-0.002013140358030796,0.00011948910832870752,-8.043344132602215e-05,0.01673192,57.043552,Clouds
134936.415,-0.003476846031844616,-0.0022176988422870636,0.0016590356826782227,0.0013385678175836802,-0.0018878650153055787,-0.00020565249724313617,0.022338469,57.043552,Clouds
134936.445,-0.00405596848577261,-0.0015549492090940475,0.0002251267433166504,-0.00043586757965385914,0.0009993350831791759,-8.291995618492365e-05,0.021295944,57.043552,Clouds
134936.474,-0.0032451944425702095,-0.00291577004827559,-0.0011174678802490234,0.0018914672546088696,0.001586301950737834,-0.0015061832964420319,0.019736622,57.043552,Clouds
134936.504,-0.0029418477788567543,-0.0032688172068446875,-0.00032401084899902344,0.00046528480015695095,0.0018311673775315285,0.0004311662632972002,0.018848008,57.043552,Clouds
134936.534,-0.0030233338475227356,-0.0022528930567204952,-0.0010256767272949219,0.00032231537625193596,-0.0014051691396161914,0.0007420334150083363,0.017573297,57.043552,Clouds
134936.564,-0.003384394571185112,-0.0016460136976093054,-0.0001563429832458496,-0.0011714110150933266,0.0005260509205982089,0.0006699039950035512,0.01751049,57.043552,Clouds
134936.594,-0.0031809527426958084,-0.0025681303814053535,0.00022530555725097656,-0.0011649256339296699,-0.000859519059304148,-0.0008600206929259002,0.057924725,57.043552,Clouds
134936.624,-0.0033783698454499245,-0.002321774372830987,-0.0011630058288574219,0.0018555494025349617,-3.374158404767513e-05,-0.0016726639587432146,0.090747386,57.043552,Clouds
134936.654,-0.0038350559771060944,-0.0021282401867210865,-0.0007513165473937988,-0.0004175512585788965,0.002496138447895646,0.0010142649989575148,0.08613534,57.043552,Clouds
134936.683,-0.0030269287526607513,-0.0025541288778185844,0.001232445240020752,-0.0009304196573793888,-0.0029594015795737505,-0.000883601838722825,0.07234724,57.043552,Clouds
134936.713,-0.0026434138417243958,-0.0024653158616274595,0.0006982088088989258,-0.0011575007811188698,0.001703050103969872,0.00010400277096778154,0.06586818,57.043552,Clouds
134936.743,-0.003730928525328636,-0.002137263771146536,-0.00040036439895629883,0.00035075447522103786,0.0006661637453362346,0.0009291220339946449,0.060533397,57.043552,Clouds
134936.773,-0.002812114544212818,-0.0026708694640547037,-9.518861770629883e-05,0.0015196222811937332,-0.0004525314725469798,0.0009100159513764083,0.050998867,57.043552,Clouds
134936.803,-0.0034411074593663216,-0.00194237707182765,0.0010033845901489258,0.0021094216499477625,0.0013082040240988135,-0.0006659091450273991,0.047602363,57.043552,Clouds
134936.833,-0.0030507901683449745,-0.002024439861997962,0.00024062395095825195,-0.0032002958469092846,0.000797222601249814,0.0020336208399385214,0.05318023,57.043552,Clouds
134936.862,-0.0031021349132061005,-0.002320690546184778,-0.000934302806854248,-0.005255641415715218,0.00028619595104828477,0.00015265605179592967,0.05229206,57.043552,Clouds
134936.892,-0.0031365985050797462,-0.0025640896055847406,-0.0009346604347229004,-0.0006482838653028011,0.0018199210753664374,-0.002812752267345786,0.05153912,57.043552,Clouds
134936.922,-0.0032395757734775543,-0.0015139097813516855,0.0002555251121520996,0.002073342213407159,0.0008990851929411292,-6.116542499512434e-05,0.05450994,57.043552,Clouds
134936.952,-0.0031782323494553566,-0.0022833230905234814,8.755922317504883e-05,0.0022458871826529503,0.0008988506160676479,0.0004013725556433201,0.094102435,57.043552,Clouds
134936.982,-0.0032517993822693825,-0.001792294904589653,-0.0010259747505187988,-0.0013396183494478464,-0.00016910572594497353,-0.0005070947809144855,0.087124825,57.043552,Clouds
134937.012,-0.0031252307817339897,-0.0028791911900043488,8.791685104370117e-05,0.0006312348414212465,0.00024449528427794576,-0.0005123698501847684,0.084833436,57.043552,Clouds
134937.041,-0.0033872220665216446,-0.0021675496827811003,-0.0008124113082885742,-8.54935497045517e-05,0.0003512357361614704,-0.001884403289295733,0.078951165,57.043552,Clouds
134937.071,-0.003447767347097397,-0.002060679951682687,-4.965066909790039e-05,0.001322061289101839,0.001500638434663415,-0.001363203045912087,0.07230236,57.043552,Clouds
134937.100,-0.0031729992479085922,-0.0019630726892501116,-0.0007210969924926758,-0.004201463423669338,5.880811659153551e-05,-1.0927906259894371e-05,0.069613665,57.043552,Clouds
134937.131,-0.0032474007457494736,-0.0009929570369422436,0.00048422813415527344,-0.0034027048386633396,-0.0013926979154348373,0.000573383760638535,0.063284166,57.043552,Clouds
134937.161,-0.002688247710466385,-0.001248206477612257,-0.0006598234176635742,0.0011540227569639683,0.0004706410982180387,6.921141175553203e-05,0.058745362,57.043552,Clouds
134937.191,-0.0034820977598428726,-0.0025869766250252724,0.0002250075340270996,0.0005674362182617188,4.1698775021359324e-05,0.0002662735350895673,0.055311795,57.043552,Clouds
134937.220,-0.0032788850367069244,-0.001196415163576603,-0.000781714916229248,-0.001513705705292523,-0.0015521757304668427,0.0019341368461027741,0.048937935,57.043552,Clouds
134937.250,-0.0029342565685510635,-0.0027133894618600607,-0.000583350658416748,0.001049345126375556,0.0003313175984658301,-0.0015862204600125551,0.047506683,57.043552,Clouds
134937.280,-0.003167347051203251,-0.0021968416403979063,0.0009123086929321289,-0.0007384312339127064,-0.00036338751669973135,4.8846995923668146e-05,0.04656845,57.043552,Clouds
134937.310,-0.0024859867990016937,-0.0015844653826206923,-0.0020474791526794434,-0.0012081463355571032,-0.0007458662148565054,0.0006243695970624685,0.06967863,57.043552,Clouds
134937.340,-0.0027572624385356903,-0.0009298790246248245,-0.000796198844909668,6.080511957406998e-05,-0.0017332088900730014,-0.0003512301482260227,0.09270421,57.043552,Clouds
134937.370,-0.002941506914794445,-0.0016129319556057453,-0.00012487173080444336,-4.5151449739933014e-05,0.001156154670752585,0.0011217048158869147,0.08480966,57.043552,Clouds
134937.399,-0.002957588993012905,-0.0016079763881862164,-0.00018602609634399414,0.0021649012342095375,-5.882700497750193e-05,0.0033994156401604414,0.0817246,57.043552,Clouds
134937.429,-0.0019984981045126915,-0.0013978518545627594,-0.0008572936058044434,0.0016858282033354044,0.0003600800409913063,-0.002239327412098646,0.0775417,57.043552,Clouds
134937.459,-0.0028385426849126816,-0.002478468930348754,-0.0007960796356201172,0.0011010614689439535,-0.001352686551399529,-0.002395117888227105,0.07442472,57.043552,Clouds
134937.489,-0.003291129134595394,-0.002038501901552081,0.0005619525909423828,0.00011559762060642242,-0.00021483187447302043,0.0018573137931525707,0.07117164,57.043552,Clouds
134937.519,-0.002457675524055958,-0.0018042761366814375,-0.00020122528076171875,-0.0007049082778394222,-0.0006682506063953042,0.0012323937844485044,0.06422417,57.043552,Clouds
134937.549,-0.0028625112026929855,-0.0012618803884834051,-0.0012689828872680664,-0.0022324209567159414,-0.00047856601304374635,0.0004735873662866652,0.06082157,57.043552,Clouds
134937.578,-0.002945246174931526,-0.002403278136625886,7.37309455871582e-05,-0.005140100605785847,-0.00044364749919623137,-0.0010479302145540714,0.05730175,57.043552,Clouds
134937.608,-0.003215598873794079,-0.0023900866508483887,0.0004553794860839844,0.0019843594636768103,0.0014012985629960895,0.0006069522933103144,0.05439249,57.043552,Clouds
134937.638,-0.0018057050183415413,-0.0011789933778345585,-0.000322878360748291,0.002311773132532835,0.0005953310756012797,-0.0012200342025607824,0.051674273,57.043552,Clouds
134937.668,-0.0029010670259594917,-0.0023082494735717773,-0.0003229379653930664,0.001745085697621107,-0.0006397676770575345,0.0009232548181898892,0.05256988,57.043552,Clouds
134937.697,-0.003695080056786537,-0.0016721836291253567,7.408857345581055e-05,9.943777695298195e-05,-0.00010652036144165322,-0.0013287370093166828,0.052763727,57.043552,Clouds
134937.727,-0.0030852779746055603,-0.0023566815070807934,-0.00047528743743896484,0.000864583533257246,-0.00036727049155160785,0.00040812650695443153,0.051434692,57.043552,Clouds
134937.757,-0.002118821255862713,-0.001271542627364397,-0.0016804337501525879,-0.0021332330070436,-0.0004952624440193176,0.0002600840525701642,0.053321414,57.043552,Clouds
134937.787,-0.004431002773344517,-0.002099773846566677,-0.0012532472610473633,0.0014102216809988022,0.0008021928952075541,0.001974049024283886,0.051357917,57.043552,Clouds
134937.817,-0.0027678515762090683,-0.002021399326622486,0.0004709959030151367,0.0002543628215789795,-0.00011971135245403275,0.0007460719207301736,0.08596066,57.043552,Clouds
134937.847,-0.002342761494219303,-0.0012702001258730888,-0.0018939971923828125,7.384014315903187e-05,0.001161994761787355,0.001196256373077631,0.07866137,57.043552,Clouds
134937.876,-0.0028538713231682777,-0.0018126461654901505,-0.0013449788093566895,-0.0029873703606426716,0.002631774637848139,-0.0002737921313382685,0.076058894,57.043552,Clouds
134937.906,-0.0031019244343042374,-0.0021251728758215904,7.414817810058594e-05,0.0033221482299268246,0.0013651310000568628,0.00023773510474711657,0.06500772,57.043552,Clouds
134937.936,-0.002410171553492546,-0.0017912662588059902,0.00041037797927856445,0.0020609935745596886,-0.0002339899365324527,-0.00015595246804878116,0.060005736,57.043552,Clouds
134937.966,-0.00074723269790411,-0.0009264936670660973,7.462501525878906e-05,-0.0019105504034087062,0.002026848029345274,-0.0005272555281408131,0.05079495,57.043552,Clouds
134937.996,-0.0024465247988700867,-0.00189571687951684,-0.0013290047645568848,-0.001753871445544064,-0.00023920625972095877,0.0011684244964271784,0.04716174,57.043552,Clouds
134938.026,-0.0033523626625537872,-0.0022880439646542072,9.018182754516602e-05,0.002873564139008522,0.0015027942135930061,0.0032884362153708935,0.044894297,57.043552,Clouds
134938.056,-0.0012308545410633087,-0.002374795265495777,0.00021219253540039062,-0.0008147070184350014,0.00017258076695725322,-0.0010156838688999414,0.041848455,57.043552,Clouds
134938.085,-0.0027876123785972595,-0.0012067281641066074,-0.00023037195205688477,0.0029288006480783224,-0.0008165283361449838,-0.0011307222303003073,0.04738831,57.043552,Clouds
134938.115,-0.0027368180453777313,-0.001893519889563322,-0.00013870000839233398,0.00017342576757073402,0.0014226234052330256,-0.001075904001481831,0.06067205,57.043552,Clouds
134938.145,-0.0035884911194443703,-0.0018849726766347885,-0.00021499395370483398,-0.0025208154693245888,-0.00018916220869868994,-0.001290126470848918,0.05869301,57.043552,Clouds
134938.175,-0.002627328969538212,-0.0019269566982984543,-0.0007645487785339355,0.0006025179754942656,0.00041174361831508577,0.0035553164780139923,0.0577024,57.043552,Clouds
134938.204,-0.0028622811660170555,-0.001288511324673891,0.0014169812202453613,0.0028768128249794245,0.001962089678272605,-0.0027557590510696173,0.049875285,57.043552,Clouds
134938.234,-0.0043432703241705894,-0.001011363696306944,0.0002727508544921875,0.001684090355411172,0.0009674125467427075,-0.0023782190401107073,0.04707612,57.043552,Clouds
134938.264,-0.0027295025065541267,-0.0012768353335559368,-0.0009019970893859863,0.0029300593305379152,3.0306371627375484e-05,-0.0036650747060775757,0.042036448,57.043552,Clouds
134938.294,-0.0020701931789517403,-0.001509380992501974,-0.0007036328315734863,-0.0008618764113634825,-6.084520282456651e-05,0.0022777130361646414,0.05935252,57.043552,Clouds
134938.324,-0.003115428611636162,-0.003090167883783579,0.00048655271530151367,0.002703909995034337,-0.0028167846612632275,-0.0013651669723913074,0.055152472,57.043552,Clouds
134938.354,-0.0027839448302984238,-0.0023986133746802807,-0.00018459558486938477,-0.00033430708572268486,-0.0015547046205028892,-0.001614518347196281,0.04857899,57.043552,Clouds
134938.384,-0.0024047205224633217,-0.0006111208349466324,7.50422477722168e-05,0.00013083312660455704,3.423159068915993e-05,0.0025109052658081055,0.044669606,57.043552,Clouds
134938.413,-0.0028155623003840446,-0.001796400174498558,-0.00032210350036621094,-0.0015670609427616,-0.0018028243212029338,-0.0004919622442685068,0.03860711,57.043552,Clouds
134938.443,-0.0028671622276306152,-0.0018427749164402485,-0.0019395947456359863,0.0010157604701817036,0.0016570568550378084,-0.0009779254905879498,0.03752367,57.043552,Clouds
134938.473,-0.003553343005478382,-0.0020690448582172394,0.00010478496551513672,0.0010449232067912817,-0.001968292985111475,1.6360427252948284e-06,0.035135504,57.043552,Clouds
134938.503,-0.0020057857036590576,-0.0016092825680971146,-0.00010907649993896484,-0.0015930722001940012,-0.0017853578319773078,0.00013608019798994064,0.039899815,57.043552,Clouds
134938.533,-0.002670600078999996,-0.0015409179031848907,-0.0006124973297119141,0.0014434591867029667,-0.0024611724074929953,-0.002666178159415722,0.039788935,57.043552,Clouds
134938.563,-0.0037569021806120872,-0.001461791805922985,0.00025731325149536133,-0.0011763478396460414,0.0037997474428266287,-0.002851004246622324,0.05486673,57.043552,Clouds
134938.592,-0.0027626361697912216,-0.0014304746873676777,0.00021153688430786133,0.000711243599653244,-0.0006735717179253697,-3.611762076616287e-05,0.08229846,57.043552,Clouds
134938.622,-0.0017301961779594421,-0.0018533868715167046,0.00015050172805786133,0.001758461818099022,-0.0013691030908375978,-8.405180415138602e-05,0.078002505,57.043552,Clouds
134938.652,-0.0026546157896518707,-0.0016764611937105656,-0.00042897462844848633,0.002231873571872711,-0.002706613391637802,0.0006540462491102517,0.08782175,57.043552,Clouds
134938.682,-0.0028552860021591187,-0.0016693519428372383,-3.236532211303711e-05,0.0003010900691151619,-0.0001209544061566703,0.001604876946657896,0.1288657,57.043552,Clouds
134938.712,-0.0019765961915254593,-0.0010194038040935993,0.0007003545761108398,0.0006200503557920456,-0.0021128752268850803,-0.00023268692893907428,0.11176549,57.043552,Clouds
134938.742,-0.0033111833035945892,-0.0010618544183671474,-0.000443875789642334,-0.001117373933084309,0.0003129737451672554,0.0021307438146322966,0.10664452,57.043552,Clouds