Timestamp,AccelX,AccelY,AccelZ,GyroX,GyroY,GyroZ,AudioLevel,LightLevel,Weather
135204.771,-0.0004834197461605072,0.0003292597830295563,-0.000543057918548584,-0.0017421127995476127,4.315530532039702e-06,0.0033165295608341694,0.14937475,57.043552,Clouds
135204.801,0.0005595562979578972,-0.00032902369275689125,-0.0002378225326538086,-0.00016225897707045078,0.002256108680739999,-0.0005682908813469112,0.13463713,57.043552,Clouds
135204.831,0.0013038814067840576,0.00026429304853081703,-0.0010923147201538086,-0.003016288857907057,-0.0014767199754714966,0.00012995878932997584,0.112651125,57.043552,Clouds
135204.860,0.00040858518332242966,0.00013987021520733833,0.0003116130828857422,0.0002364157699048519,0.0003725479473359883,0.00047436560271307826,0.1431644,57.043552,Clouds
135204.891,-2.672150731086731e-05,-2.8957612812519073e-05,-0.0006349682807922363,0.0010526617988944054,0.00042711623245850205,0.000949580455198884,0.12700592,57.043552,Clouds
135204.921,0.0006887642666697502,-0.0014080200344324112,0.002279222011566162,0.000317014055326581,0.003351828781887889,0.002946630585938692,0.12052812,57.043552,Clouds
135204.950,0.0008785612881183624,-0.0011540194973349571,-0.0022373199462890625,-0.0014686210779473186,-0.0014464473351836205,-0.0005780532956123352,0.13401952,57.043552,Clouds
135204.980,0.00023783184587955475,0.00022586295381188393,-0.00028443336486816406,-0.0007324402686208487,0.0014168471097946167,0.00010779238073155284,0.24567243,57.043552,Clouds
135205.010,0.0003374572843313217,0.000989329069852829,0.0009972453117370605,-0.0003187484107911587,-0.0018565772334113717,-0.0021928902715444565,0.24201468,57.043552,Clouds
135205.040,0.0015178071334958076,0.0005196211859583855,-0.00014740228652954102,-0.0013860865728929639,-7.510941941291094e-05,-0.004980243276804686,0.3055864,57.043552,Clouds
135205.070,-0.00024289637804031372,-0.0003880290314555168,2.0503997802734375e-05,-0.003508326830342412,0.0006057097343727946,-0.0010945594403892756,0.28616732,57.043552,Clouds
135205.099,-5.6034885346889496e-05,-5.924049764871597e-05,0.0001577138900756836,-0.0018247324042022228,-9.916913404595107e-05,-8.961826097220182e-06,0.25578812,57.043552,Clouds
135205.129,0.0011132312938570976,0.000411404762417078,-0.0004070401191711426,0.00041459081694483757,-0.0020072106271982193,9.583344217389822e-05,0.20407026,57.043552,Clouds
135205.159,0.0016471752896904945,-0.004772852640599012,-0.0013373494148254395,-0.002475118963047862,-0.00023997690004762262,-0.0022110019344836473,0.18863817,57.043552,Clouds
135205.189,-2.8821639716625214e-05,0.0027730632573366165,0.0006306767463684082,0.00022114929743111134,0.0022959853522479534,-0.000795386207755655,0.48051703,57.043552,Clouds
135205.219,-0.0003735870122909546,0.0010570529848337173,0.0015308856964111328,-6.909063085913658e-05,-0.00021853946964256465,-0.004216275177896023,0.46343032,57.043552,Clouds
135205.249,-0.00014843512326478958,-0.0013657473027706146,0.00040149688720703125,0.000650912057608366,0.0008693670388311148,-0.0011379565112292767,0.43833354,57.043552,Clouds
135205.278,0.0008769379928708076,-0.0009706728160381317,0.0006917119026184082,-0.002980349585413933,-0.0009951534448191524,0.0010725937318056822,0.38000658,57.043552,Clouds
135205.308,0.0010121632367372513,0.0007675802335143089,-0.0002848505973815918,-0.001416057231836021,-3.152673889417201e-05,-0.0011924434220418334,0.34249893,57.043552,Clouds
135205.338,-0.0009811744093894958,-0.0003558024764060974,-0.00014770030975341797,0.0025521027855575085,0.0024823907297104597,0.0004323319299146533,0.28119245,57.043552,Clouds
135205.368,-0.0003808857873082161,0.00027598487213253975,-0.000835120677947998,0.0012803880963474512,0.0008570163045078516,0.000932517577894032,0.25524265,57.043552,Clouds
135205.398,0.0003183111548423767,5.2584800869226456e-05,0.00011074542999267578,0.0027531394734978676,-0.00015997490845620632,-0.0004278936539776623,0.23140723,57.043552,Clouds
135205.427,0.0005788421258330345,6.462400779128075e-05,0.00021779537200927734,-0.000725877471268177,-0.0006691580056212842,0.0007516844780184329,0.19833426,57.043552,Clouds
135205.457,0.00011272728443145752,0.00038927560672163963,0.0004926323890686035,-0.001202411251142621,-0.0022990212310105562,-9.830459021031857e-05,0.18705317,57.043552,Clouds
135205.487,-0.0009656082838773727,-0.0013042092323303223,-0.0004381537437438965,-0.001447661779820919,5.2464529289864004e-05,-9.60455508902669e-05,0.1724185,57.043552,Clouds
135205.517,0.0011019762605428696,-0.0009843586012721062,-0.0001175999641418457,-0.002032211748883128,0.00016388465883210301,-0.0027444364968687296,0.167518,57.043552,Clouds
135205.547,0.0005430476740002632,0.0005417461507022381,0.0003707408905029297,-0.004371220245957375,0.00017112074419856071,0.00032701960299164057,0.17086624,57.043552,Clouds
135205.577,-5.128048360347748e-05,-1.8014106899499893e-05,-0.00019359588623046875,-0.001326819765381515,-0.0026869336143136024,-0.000762420182581991,0.16318658,57.043552,Clouds
135205.606,-0.0006301496177911758,2.4743378162384033e-05,-0.0008647441864013672,0.0024096830748021603,-0.0003986522788181901,-0.0008862807881087065,0.15373111,57.043552,Clouds
135205.636,0.00030498579144477844,-0.0006066788919270039,5.364418029785156e-06,0.00043509015813469887,-2.212358231190592e-05,-0.0007096228073351085,0.13814801,57.043552,Clouds
135205.666,-3.706105053424835e-05,0.0002654450945556164,-0.0006353259086608887,0.0005026778671890497,-0.00048151868395507336,0.0022443756461143494,0.14798628,57.043552,Clouds
135205.696,-0.00040090084075927734,-4.2347703129053116e-05,0.00032585859298706055,0.0009139252360910177,-3.310682950541377e-05,0.0005451782490126789,0.25323337,57.043552,Clouds
135205.726,0.0004644356667995453,0.0003268118016421795,-0.00036090612411499023,-0.0029041466768831015,-0.00025633140467107296,-0.0019078922923654318,0.21942504,57.043552,Clouds
135205.756,-0.00012702122330665588,0.00014224089682102203,-0.00036084651947021484,0.003257565665990114,0.0013584665721282363,-0.0006273986655287445,0.20012704,57.043552,Clouds
135205.785,-0.0006751948967576027,-0.0001681591384112835,-0.00043696165084838867,0.0008362201042473316,0.0014052261831238866,0.0002203097683377564,0.16717386,57.043552,Clouds
135205.815,-0.00048786774277687073,-0.0003788578324019909,0.0005088448524475098,-0.001268490101210773,0.00048415191122330725,0.00017206260235980153,0.15119007,57.043552,Clouds
135205.845,0.0003085751086473465,-0.00025753676891326904,-0.0008795857429504395,0.00013901176862418652,0.0003997818275820464,0.00020383484661579132,0.13814822,57.043552,Clouds
135205.875,0.0009200414642691612,-0.00020481785759329796,-0.0005136728286743164,0.0005853963084518909,0.0008399414946325123,-4.894437734037638e-05,0.119855985,57.043552,Clouds
135205.905,-0.0010175090283155441,-0.00031869346275925636,0.0002493858337402344,-0.00030630361288785934,0.00041634420631453395,-0.0005525329615920782,0.11381848,57.043552,Clouds
135205.935,-0.0007931683212518692,6.651272997260094e-05,0.00017321109771728516,0.000609253067523241,0.00012676481856033206,-0.0006127568194642663,0.10079595,57.043552,Clouds
135205.965,0.002270129509270191,-0.0005023651756346226,-0.0010784268379211426,-0.0014955378137528896,0.002310138661414385,0.0016003214986994863,0.09177894,57.043552,Clouds
135205.994,-0.0009301314130425453,-0.00037408899515867233,-0.0004067420959472656,0.0010498638730496168,0.00043937540613114834,-0.0005406230338849127,0.08802382,57.043552,Clouds
135206.024,-0.0017366716638207436,-0.000696925912052393,0.00017333030700683594,0.0013047154061496258,0.0003680995723698288,0.0015924344770610332,0.07964123,57.043552,Clouds
135206.054,0.000581987202167511,0.0006608283147215843,0.001027524471282959,0.00047072209417819977,-0.0005247882218100131,-0.002185580087825656,0.07504502,57.043552,Clouds
135206.083,0.002421947196125984,-0.0006702626124024391,-0.0017647743225097656,-0.0024784335400909185,0.0004171596374362707,0.001052633859217167,0.06906073,57.043552,Clouds
135206.113,-0.001061432994902134,-0.0007146415300667286,0.00041735172271728516,-0.00016521266661584377,0.0027051910292357206,0.0006520998431369662,0.06755933,57.043552,Clouds
135206.143,0.0005558794364333153,0.0008378559723496437,-0.0015205144882202148,0.0015718818176537752,0.0005061017582193017,0.00017683691112324595,0.087637745,57.043552,Clouds
135206.173,0.0005145641043782234,-0.0009012403897941113,0.00021857023239135742,0.0007679727859795094,-0.0009584781364537776,0.0011746397940441966,0.084440656,57.043552,Clouds
135206.203,-0.0004034731537103653,-0.0009011039510369301,0.0015610456466674805,0.0004902156069874763,-0.00021653495787177235,-0.0014496548101305962,0.08278776,57.043552,Clouds
135206.233,0.00014676153659820557,-0.0002912571653723717,0.00029468536376953125,-0.0006037752609699965,0.0012547681108117104,0.0007659150287508965,0.07241388,57.043552,Clouds
135206.262,0.0013234931975603104,7.347762584686279e-05,-0.00026994943618774414,-0.0016606985591351986,-4.996842471882701e-05,0.0008491817279718816,0.06810175,57.043552,Clouds
135206.292,0.00030636973679065704,-0.0005362574011087418,0.00020325183868408203,-0.0008604060858488083,-0.0004905413370579481,-0.0012776588555425406,0.06386828,57.043552,Clouds
135206.322,-0.0006969152018427849,0.0003754175268113613,-0.001337587833404541,-0.001557510462589562,0.0007969473954290152,0.0018109912052750587,0.05566303,57.043552,Clouds
135206.352,7.266085594892502e-05,-0.00014905445277690887,-0.00029987096786499023,-0.005482492968440056,-0.0005709087126888335,-0.0007510923314839602,0.055230826,57.043552,Clouds
135206.382,0.0008323714137077332,-0.00026954011991620064,-0.0006815791130065918,0.0019465747755020857,0.0029656069818884134,0.0009545957436785102,0.050295293,57.043552,Clouds
135206.412,0.00014722440391778946,-0.00012503284960985184,0.000508427619934082,0.0025616600178182125,-0.00030313082970678806,0.0024423236027359962,0.048638575,57.043552,Clouds
135206.441,-0.0004993416368961334,0.0006576757878065109,-2.5451183319091797e-05,-0.0025950130075216293,-0.001859877142123878,0.0006932167452760041,0.062232066,57.043552,Clouds
135206.471,-0.00016253720968961716,0.0006850799545645714,-0.00016260147094726562,0.0014638346619904041,-0.0013934558955952525,0.0003578211471904069,0.0645095,57.043552,Clouds
135206.501,0.0009286515414714813,-0.00023610517382621765,-0.0010019540786743164,-0.00012405659072101116,-0.0024308126885443926,0.0005742287612520158,0.060185272,57.043552,Clouds
135206.531,0.00015559792518615723,-0.00025063659995794296,-0.0008645057678222656,-0.0002748121041804552,-0.0026380796916782856,0.0004235761589370668,0.05553491,57.043552,Clouds
135206.561,0.000385824590921402,-0.0003406335599720478,-0.0005897283554077148,0.0007015874143689871,0.0015389227773994207,7.086782716214657e-05,0.052019395,57.043552,Clouds
135206.591,-9.175017476081848e-05,0.00015068333595991135,-9.953975677490234e-06,-0.0010176592040807009,-0.0003955382271669805,-9.737093932926655e-05,0.049946498,57.043552,Clouds
135206.620,0.000317365862429142,-0.0003168899565935135,0.0003260970115661621,-0.001267606276087463,0.0007001871126703918,0.0009767577284947038,0.045742717,57.043552,Clouds
135206.650,0.00015552714467048645,-0.0003050686791539192,0.0009824037551879883,-0.00020511867478489876,-0.0014869575388729572,0.002316498663276434,0.043377925,57.043552,Clouds
135206.680,-0.00035171862691640854,-0.00013329042121767998,-0.00019288063049316406,0.0008835864719003439,-0.0004514589672908187,0.0003031512605957687,0.059414186,57.043552,Clouds
135206.710,-0.001530577428638935,0.00037951022386550903,6.663799285888672e-05,-0.0008938843384385109,-0.0035207837354391813,-0.00011800642823800445,0.056867354,57.043552,Clouds
135206.740,0.0002839788794517517,-0.0005447668954730034,2.0802021026611328e-05,3.288150765001774e-05,-0.00012276780034881085,-2.122757723554969e-05,0.053377002,57.043552,Clouds
135206.770,0.00045812036842107773,-0.0004853932186961174,-0.0008792281150817871,0.00014555267989635468,0.0006221624789759517,5.6075514294207096e-05,0.05139522,57.043552,Clouds
135206.799,0.00014493614435195923,-0.00041241850703954697,0.00021946430206298828,0.001041595358401537,0.0009712178725749254,-0.0008482717676088214,0.051110167,57.043552,Clouds
135206.829,-9.512528777122498e-05,0.0008435091003775597,0.00026530027389526367,0.0022343085147440434,5.891166802030057e-05,-0.0015406726161018014,0.13325748,57.043552,Clouds
135206.859,-0.0008721910417079926,-0.0004154061898589134,-0.00028401613235473633,0.002270850818604231,0.0005914546782150865,0.0005697723827324808,0.13019879,57.043552,Clouds
135206.889,-0.0005002748221158981,-0.0016709626652300358,3.641843795776367e-05,0.002264571376144886,0.0001748960348777473,-0.0015608805697411299,0.28594336,57.043552,Clouds
135206.919,0.0018627457320690155,-0.00023407908156514168,0.00024944543838500977,-0.0019505666568875313,0.002505244454368949,-0.0012063562171533704,0.25912368,57.043552,Clouds
135206.949,-0.0005377475172281265,-0.00014304881915450096,-0.0004982948303222656,-0.0004610731266438961,-0.0010808323277160525,0.0007381530595012009,0.2423256,57.043552,Clouds
135206.978,-0.0006363475695252419,-0.001005831640213728,3.5822391510009766e-05,0.00023493915796279907,-0.001175211276859045,0.0023440695367753506,0.22827083,57.043552,Clouds
135207.008,0.000683649443089962,-0.0008212970569729805,-0.0013983845710754395,-0.00090938457287848,-0.0005273357382975519,-0.00010688637848943472,0.34694716,57.043552,Clouds
135207.038,-0.00013982318341732025,6.87246210873127e-05,0.00047856569290161133,-0.00011920114047825336,-0.0014091848861426115,-0.0016717009712010622,0.3259577,57.043552,Clouds
135207.068,-0.0003717513754963875,-0.000372384674847126,0.0004023313522338867,-0.00029877200722694397,0.0011786147952079773,-0.0019156243652105331,0.27139002,57.043552,Clouds
135207.097,-0.000316031277179718,0.0002396153286099434,9.715557098388672e-05,-0.0006336385849863291,-0.001142264693044126,-0.0012455661781132221,0.24459752,57.043552,Clouds
135207.128,0.0013533681631088257,0.0002929000183939934,0.00012755393981933594,-0.001923341304063797,-0.0006040476728230715,-0.00012298300862312317,0.22188051,57.043552,Clouds
135207.157,0.0010232459753751755,-0.0006414977833628654,-0.0006197094917297363,-0.0045555061660707,-0.0015871188370510936,-0.0004375859280116856,0.18766534,57.043552,Clouds
135207.187,-0.0011492688208818436,-0.00026033539324998856,0.0001742839813232422,-0.003029613057151437,0.000924603664316237,-0.0012941755121573806,0.17080528,57.043552,Clouds
135207.217,0.00013765040785074234,-0.0008556647226214409,0.00018924474716186523,8.27261246740818e-05,0.0006963403429836035,-0.00018862035358324647,0.15326619,57.043552,Clouds
135207.247,0.0009837085381150246,-0.0006632884033024311,-0.001763761043548584,-0.002354663796722889,0.000526521063875407,-0.0017013271572068334,0.15161258,57.043552,Clouds
135207.277,0.0011053560301661491,-0.0004412289708852768,-0.0010463595390319824,-0.0007844767533242702,0.0022989166900515556,0.0025605408009141684,0.14167263,57.043552,Clouds
135207.307,-0.000794457271695137,-7.563317194581032e-05,0.0011965632438659668,-0.0012201981153339148,0.0007506580441258848,0.00125990086235106,0.13579956,57.043552,Clouds
135207.336,-0.00017423368990421295,-0.0012574843131005764,-0.00013124942779541016,-0.0017712987028062344,0.0024373666383326054,-0.002106154803186655,0.20039314,57.043552,Clouds
135207.366,0.0011034747585654259,-0.000803409144282341,-0.0019625425338745117,0.00013726460747420788,-0.00014341206406243145,-0.002716987393796444,0.21452963,57.043552,Clouds
135207.396,-0.0012653693556785583,-0.0005685151554644108,0.0011043548583984375,0.0007358237635344267,0.001650132006034255,-0.0019514401210471988,0.19779418,57.043552,Clouds
135207.426,-0.00046742986887693405,-0.0001023588702082634,-0.0002231597900390625,-0.0009562205523252487,-0.00048558239359408617,0.00010876223677769303,0.19711572,57.043552,Clouds
135207.456,0.0008819671347737312,-0.0002779494971036911,-0.0016726851463317871,0.001008136896416545,0.0012668404961004853,0.00046067824587225914,0.29272997,57.043552,Clouds
135207.485,-0.0005299719050526619,-0.00021637370809912682,0.0001736283302307129,-0.0006814803928136826,0.0009230102878063917,-0.0007097647758200765,0.2833188,57.043552,Clouds
135207.515,-0.001226494088768959,-0.0012449342757463455,-0.0007115602493286133,0.0010053303558379412,0.0008408649591729045,-0.000871532887686044,0.3499907,57.043552,Clouds
135207.545,0.0013129869475960732,-0.0005883346311748028,-0.0007572770118713379,-0.0011524483561515808,0.0006655312026850879,0.0006091615650802851,0.31670675,57.043552,Clouds
135207.575,0.0003901040181517601,0.0004519224166870117,-0.0005742311477661133,-0.000908741494640708,0.00203887396492064,0.0007020123885013163,0.29914072,57.043552,Clouds
135207.605,0.0001967214047908783,-0.0009507997892796993,0.0003566145896911621,-0.00016420427709817886,4.487740807235241e-05,0.00015991320833563805,0.26409987,57.043552,Clouds
135207.635,0.00013772863894701004,7.40494579076767e-05,0.00012761354446411133,0.0021118465811014175,-0.0008371867006644607,0.0010621320689097047,0.2390178,57.043552,Clouds
135207.665,0.0011770427227020264,0.0004898975603282452,-0.0009405612945556641,0.003829940687865019,0.0010603090049698949,-0.0009045220795087516,0.19775477,57.043552,Clouds
135207.694,-0.0003567216917872429,-0.0002693017013370991,-0.0006049275398254395,-0.0009315821807831526,0.0017231038073077798,-0.00022112007718533278,0.179229,57.043552,Clouds
135207.724,-0.0004124818369746208,-0.0012862286530435085,-0.0011695623397827148,0.0023215818218886852,0.003255472518503666,-0.00023404561216011643,0.16743615,57.043552,Clouds
135207.754,0.0014936290681362152,-0.0001777075231075287,-0.0005745887756347656,-0.003288540756329894,5.256792064756155e-05,-0.0006842986913397908,0.14302759,57.043552,Clouds
135207.784,0.0005103843286633492,0.00032368022948503494,-5.602836608886719e-05,-0.0003695788327604532,0.0013104776153340936,-0.0017942226259037852,0.13690428,57.043552,Clouds
135207.814,-0.0017378758639097214,-0.00038642948493361473,-0.0005751252174377441,-0.0001851778943091631,-0.0018209954723715782,-0.001047282014042139,0.12443099,57.043552,Clouds
135207.843,0.00044580642133951187,-0.0008807368576526642,-0.00046825408935546875,0.0004295541439205408,-0.0016066906973719597,5.606969352811575e-05,0.11543298,57.043552,Clouds
135207.873,0.0015101581811904907,0.00040214089676737785,-0.00042247772216796875,-0.0008416085038334131,0.0007588984444737434,-0.0007329899817705154,0.10531213,57.043552,Clouds
135207.903,0.0014582658186554909,-0.0032885130494832993,0.0011342167854309082,-0.0010282404255121946,-0.0010776201961562037,-0.0009721457026898861,0.092820086,57.043552,Clouds
135207.933,-0.0014610672369599342,-0.002751616295427084,0.0014243125915527344,0.00042626308277249336,-0.0004329023649916053,-0.0026311969850212336,0.090974815,57.043552,Clouds
135207.963,0.0007028933614492416,0.0007732757367193699,0.0037743449211120605,-0.0013334997929632664,-0.0005099496338516474,-0.0007639991235919297,0.082468055,57.043552,Clouds
135207.992,0.002354281023144722,0.00022003008052706718,-0.009073138236999512,0.001472151605412364,-0.0023077093064785004,0.0022433646954596043,0.076975845,57.043552,Clouds
135208.023,-0.00017946865409612656,0.0009090257808566093,0.003606855869293213,0.0009844093583524227,0.0005311112035997212,-0.0006647168193012476,0.07293088,57.043552,Clouds
135208.052,-0.00114379171282053,0.001547524705529213,0.006353259086608887,0.0007163058035075665,0.0008963244035840034,-0.00010041153291240335,0.07015742,57.043552,Clouds
135208.081,0.0009714048355817795,0.00010429974645376205,-0.004099547863006592,-0.0016184179112315178,0.0006118570454418659,0.0015922042075544596,0.066385806,57.043552,Clouds
135208.111,0.0006187614053487778,-0.0009743142873048782,-0.0017191767692565918,0.0013154824264347553,0.001068297540768981,0.0009426367469131947,0.05837822,57.043552,Clouds
135208.141,-0.0010168878361582756,0.00028703734278678894,0.000676274299621582,0.00045385747216641903,-0.0002016562211792916,-0.00013418280286714435,0.053281106,57.043552,Clouds
135208.172,0.0015801340341567993,0.0001250011846423149,0.00047791004180908203,-0.0013127916026860476,0.0004266494361218065,-0.0003794556250795722,0.05177884,57.043552,Clouds
135208.202,-0.00032140035182237625,0.0005046101287007332,-0.0009869933128356934,-0.00042250845581293106,-4.192100459476933e-05,0.000674855662509799,0.04682385,57.043552,Clouds
135208.231,-0.0017972616478800774,-0.0006833472289144993,-0.0012308359146118164,0.0014101210981607437,-0.001783039653673768,0.00014676974387839437,0.045403365,57.043552,Clouds
135208.261,0.001676337793469429,-0.0011979136615991592,0.00020354986190795898,-0.0015442572766914964,0.0009630160639062524,0.0021010753698647022,0.042264093,57.043552,Clouds
135208.291,0.0007351869717240334,0.00034317467361688614,0.00029540061950683594,0.0005787166301161051,-0.00138569762930274,0.000682555662933737,0.04171772,57.043552,Clouds
135208.321,-0.0019863639026880264,-0.0007414054125547409,0.0002650022506713867,0.0005328967235982418,-0.0013068574480712414,0.0008963823784142733,0.04085496,57.043552,Clouds
135208.350,-0.00037132203578948975,-0.0008064396679401398,-0.0011999011039733887,-0.0035173066426068544,-0.0022276826202869415,0.0002635744749568403,0.035796996,57.043552,Clouds
135208.380,0.002131461165845394,0.0006651589646935463,-0.0008339285850524902,-0.00231752498075366,-2.9466340492945164e-05,-0.00042551703518256545,0.033729285,57.043552,Clouds
135208.410,-2.3096799850463867e-06,-0.00032059522345662117,0.0006006956100463867,0.0008690340910106897,-0.0023074480704963207,0.0017439936054870486,0.04760491,57.043552,Clouds
135208.440,-0.0012167179957032204,-0.00025949627161026,0.0007379651069641113,0.0019197759684175253,-0.0017364532686769962,0.0009405872551724315,0.046484455,57.043552,Clouds
135208.470,0.0006168205291032791,-0.00041630957275629044,-0.0007573366165161133,-0.000921051949262619,0.00104166055098176,0.0011802606750279665,0.04296362,57.043552,Clouds
135208.500,0.000575140118598938,-0.0005857921205461025,-9.59634780883789e-06,0.0014920537360012531,-0.00020559522090479732,-0.00038382672937586904,0.038246684,57.043552,Clouds
135208.530,-0.0006103115156292915,-0.0012566926889121532,-0.00045222043991088867,0.0027008724864572287,0.0014361814828589559,0.0013529141433537006,0.036305606,57.043552,Clouds
135208.559,-0.0011576460674405098,-0.0009456113912165165,2.0742416381835938e-05,0.00018083001486957073,0.0014060119865462184,0.001143810455687344,0.032972436,57.043552,Clouds
135208.589,0.0004400014877319336,-0.0006917552091181278,0.0012871623039245605,0.0018579130992293358,0.001222802558913827,0.000414225592976436,0.09306648,57.043552,Clouds
135208.619,0.0017106495797634125,-2.7508940547704697e-05,0.000737309455871582,0.0015582561027258635,-0.00050425308290869,0.001256290590390563,0.08354038,57.043552,Clouds
135208.649,-0.00202066358178854,-0.00046142982318997383,0.0010425448417663574,0.0004939471837133169,0.0017950361361727118,0.00013985217083245516,0.069232516,57.043552,Clouds
135208.678,-0.0011676428839564323,-0.00020428793504834175,0.0020037293434143066,-0.0007669997867196798,0.0007192237535491586,0.0007555527845397592,0.06321135,57.043552,Clouds
135208.708,0.002456292510032654,7.112976163625717e-06,-0.00019341707229614258,0.0013711294159293175,-0.0022180210798978806,0.0019065907690674067,0.1573967,57.043552,Clouds
135208.738,0.00015797000378370285,-0.00019530346617102623,-0.001520395278930664,-0.00027012801729142666,-0.0003970644320361316,0.0009336755028925836,0.19402613,57.043552,Clouds
135208.768,-0.0021838536486029625,-0.0013499227352440357,0.0010432004928588867,0.00014284136705100536,-0.0011539796832948923,0.0004116775235161185,0.18378326,57.043552,Clouds
135208.798,0.0005636643618345261,-5.8259814977645874e-05,0.0016842484474182129,-0.0009668914135545492,0.0021471516229212284,-0.0002724979422055185,0.3989708,57.043552,Clouds
135208.828,0.0023467717692255974,-0.0005355398170650005,-0.0009554624557495117,0.0007633846253156662,0.0011535872472450137,0.001372224884107709,0.37609318,57.043552,Clouds
135208.858,-0.0006002364680171013,-0.0008461419492959976,0.0019135475158691406,0.0020595118403434753,-0.0024319009389728308,0.0010821280302479863,0.32244834,57.043552,Clouds
135208.887,-0.0007990477606654167,-0.0002428414300084114,-0.0021454691886901855,0.0013638383243232965,0.0010386711219325662,-0.0017902640393003821,0.28884682,57.043552,Clouds
135208.917,0.0011860737577080727,0.00016861828044056892,-0.0018709897994995117,0.00015582889318466187,0.0025212459731847048,0.004413009621202946,0.26285344,57.043552,Clouds
135208.947,0.0015256637707352638,-0.0008543883450329304,-0.0019474029541015625,0.002420242642983794,0.0009521549800410867,0.0018925067270174623,0.22576006,57.043552,Clouds
135208.977,-0.0017593838274478912,-0.00041787978261709213,0.0018215179443359375,0.0004217184614390135,0.0007365280762314796,0.00047981724492274225,0.3097944,57.043552,Clouds
135209.007,0.0003016302362084389,0.0004364699125289917,-0.0008947253227233887,0.002374873496592045,0.0018140054307878017,0.0012172218412160873,0.28397706,57.043552,Clouds
135209.037,0.0020626168698072433,-0.0009312680922448635,-0.0017799735069274902,0.001786811975762248,0.0024145571514964104,-0.001793238683603704,0.25629476,57.043552,Clouds
135209.066,-0.0006611114367842674,-4.012882709503174e-05,-0.0006507635116577148,-0.001655574538744986,4.892499418929219e-06,0.0007255400996655226,0.24074411,57.043552,Clouds
135209.096,-0.000987025909125805,-0.000567771028727293,0.0001431107521057129,0.0006008283235132694,0.0022058829199522734,-0.0026650303043425083,0.20433939,57.043552,Clouds
135209.126,0.00031756050884723663,0.0002132984809577465,0.0012565255165100098,-0.000884476350620389,0.0012952503748238087,-0.0006470974185504019,0.19417976,57.043552,Clouds
135209.156,0.0003773905336856842,-0.00020875409245491028,0.00023424625396728516,-0.0023461519740521908,0.0011800563661381602,0.0004915639292448759,0.17074086,57.043552,Clouds
135209.186,-0.0013083433732390404,0.00012386590242385864,0.0018057823181152344,0.0004975153133273125,0.001485436107032001,-0.0006392882205545902,0.1621931,57.043552,Clouds
135209.215,-0.000357605516910553,-0.0010666055604815483,-0.0006360411643981934,0.0037455365527421236,-0.0013510059798136353,0.0027379808016121387,0.15210785,57.043552,Clouds
135209.245,0.002217734232544899,-2.8670765459537506e-05,-0.0009565949440002441,-0.0026176783721894026,-0.0029778487514704466,0.0018427983159199357,0.13690785,57.043552,Clouds
135209.275,-0.001020842231810093,6.199255585670471e-05,-0.0008344054222106934,0.0004642321728169918,0.0008750754641368985,-0.0016573622124269605,0.13021654,57.043552,Clouds
135209.305,-0.0022562677040696144,4.599103704094887e-05,-5.638599395751953e-05,1.3010110706090927e-05,-0.0004273294471204281,1.8130172975361347e-05,0.11581646,57.043552,Clouds
135209.335,0.0006525842472910881,-0.0002574604004621506,0.0002332925796508789,-0.0010406882502138615,0.0012869508937001228,0.0004226304590702057,0.10983104,57.043552,Clouds
135209.365,0.001018717885017395,0.0006237695924937725,-0.0006824135780334473,-0.0014020595699548721,-0.00038348831003531814,0.0011347151594236493,0.102708235,57.043552,Clouds
135209.395,-0.0012974953278899193,-0.0008026193827390671,-2.6106834411621094e-05,-0.0010110398288816214,-0.000319598795613274,-3.0878582037985325e-05,0.084363274,57.043552,Clouds
135209.424,0.0001298682764172554,-0.00018573878332972527,-0.0004380345344543457,-7.663224823772907e-05,0.00016899127513170242,0.0010687164030969143,0.07696655,57.043552,Clouds
135209.454,0.0011447137221693993,-0.0006063277833163738,0.00015693902969360352,-0.00024010660126805305,0.0017042517429217696,-0.0008759908378124237,0.06389753,57.043552,Clouds
135209.484,-0.0005617281422019005,0.00026438478380441666,0.0002638101577758789,-0.0004497249610722065,-0.003935795743018389,-0.001098777400329709,0.05821855,57.043552,Clouds
135209.514,0.00018915627151727676,0.0003057941794395447,0.0009503364562988281,-0.0013594783376902342,-0.001355727668851614,0.0004351633251644671,0.053173926,57.043552,Clouds
135209.544,0.002482428215444088,-0.0002954453229904175,-0.0025438666343688965,-0.002039198763668537,-0.0002912247146014124,0.0019291687058284879,0.044910196,57.043552,Clouds
135209.573,-0.00028384942561388016,0.0005426513962447643,0.00027889013290405273,0.0005315286107361317,0.0029443397652357817,0.0011933177011087537,0.04104036,57.043552,Clouds
135209.603,-0.0018327552825212479,-0.00015809526666998863,-0.0008804202079772949,-0.0029016570188105106,-0.0018080706940963864,-0.0025088905822485685,0.035188667,57.043552,Clouds
135209.633,0.0014659138396382332,-0.0005007204599678516,-0.0008652210235595703,0.001207565888762474,0.0010311957448720932,-0.0032814620062708855,0.0322355,57.043552,Clouds
135209.663,0.0019283127039670944,-0.0009534223936498165,-0.0011094212532043457,-0.0005155403632670641,0.001293524052016437,-0.00047360319877043366,0.029670466,57.043552,Clouds
135209.693,-0.0008288612589240074,-0.00010196492075920105,-0.0007737278938293457,0.0023807717952877283,1.1976226232945919e-05,4.1493738535791636e-05,0.02752092,57.043552,Clouds
135209.722,-0.001790609210729599,8.834060281515121e-05,-0.0002855658531188965,-0.0011852789903059602,-0.0006327982991933823,-0.00032088038278743625,0.026153049,57.043552,Clouds
135209.752,0.0013353321701288223,0.0004918817430734634,0.0006756782531738281,0.0012260822113603354,0.00043822487350553274,0.0006842755246907473,0.023875067,57.043552,Clouds
135209.782,0.0003199297934770584,0.0007526297122240067,1.895427703857422e-05,-1.9236700609326363e-05,0.0012042386224493384,0.002313188975676894,0.02386024,57.043552,Clouds
135209.812,-0.002910328097641468,-0.000793971586972475,-0.003292381763458252,0.00016344408504664898,-0.000557685096282512,0.0008745008963160217,0.022603573,57.043552,Clouds
135209.842,1.8252059817314148e-05,-0.0006790258921682835,0.0002929568290710449,-0.0018397752428427339,0.0014598607085645199,0.0023697116412222385,0.020645019,57.043552,Clouds
135209.872,0.0037406999617815018,0.00015022838488221169,0.00029271841049194336,-0.0011681796750053763,-0.0005506436573341489,-0.0010006178636103868,0.019579418,57.043552,Clouds
135209.902,-0.0023101773113012314,0.00018846523016691208,0.0008422732353210449,0.0007486259564757347,-0.0015967771178111434,-0.00020155409583821893,0.017224597,57.043552,Clouds
135209.931,-0.0021312497556209564,-0.0013103955425322056,-0.00036346912384033203,0.0012401726562529802,-0.0006337739760056138,0.0009030590299516916,0.016936863,57.043552,Clouds
135209.961,0.003693009726703167,-0.00015795696526765823,-0.001599729061126709,-0.0004558865912258625,-0.00026623759185895324,0.0011153637897223234,0.016754285,57.043552,Clouds
135209.991,0.0004887906834483147,-0.0002454658970236778,-0.0002721548080444336,-0.00041280617006123066,0.0003669141442514956,0.0009995480068027973,0.017814593,57.043552,Clouds
135210.021,-0.004123754799365997,-0.000876767560839653,0.0009179115295410156,-0.000452341977506876,0.0007320787408389151,-0.001091992948204279,0.035246436,57.043552,Clouds
135210.051,-0.0004724394530057907,0.000973275862634182,0.0005208849906921387,0.0011746950913220644,-0.0007731536752544343,-0.0005600877921096981,0.030991606,57.043552,Clouds
135210.080,0.0021102288737893105,0.00046009011566638947,-0.001477956771850586,-0.0003248231951147318,-0.0026675534900277853,-0.0007896503084339201,0.029997306,57.043552,Clouds
135210.110,-0.001402953639626503,-0.0005119978450238705,-0.002270996570587158,-0.002219300949946046,-8.563608571421355e-05,-0.0008713356219232082,0.028437452,57.043552,Clouds
135210.140,-0.0013592401519417763,0.00019673118367791176,-0.0001958608627319336,-0.0011604344472289085,0.0005289582186378539,-0.0017764668446034193,0.027376981,57.043552,Clouds
135210.170,0.0020489562302827835,0.0004989593289792538,-0.00010436773300170898,-0.0025984221138060093,0.0012382479617372155,-0.0016009870450943708,0.03858051,57.043552,Clouds
135210.200,5.3979456424713135e-05,-0.00038585299625992775,-0.00037866830825805664,0.0014929678291082382,-0.00214981148019433,0.0010215732036158442,0.033857394,57.043552,Clouds
135210.229,-0.0012113824486732483,-0.00024816347286105156,-0.0009432435035705566,0.000999534036964178,0.0008635785197839141,0.0018067386699840426,0.03216718,57.043552,Clouds
135210.259,-0.000743410550057888,-0.0008214404806494713,-0.0005922913551330566,0.0018956493586301804,0.0008881173562258482,-0.0008950241026468575,0.030229367,57.043552,Clouds
135210.289,0.0016862209886312485,-0.00031782127916812897,-0.0006232261657714844,0.0022668587043881416,-6.933351687621325e-05,-0.0012484844774007797,0.027231434,57.043552,Clouds
135210.319,1.7282553017139435e-05,0.0006797453388571739,0.001528322696685791,0.0011851326562464237,0.0034792162477970123,-0.0018466069595888257,0.025822088,57.043552,Clouds
135210.348,-0.0025102682411670685,-0.0002806326374411583,0.001696169376373291,0.0003214091993868351,0.0012555611319839954,-0.000300311716273427,0.02405497,57.043552,Clouds
135210.378,-0.0005268063396215439,-0.0002697897143661976,0.0002620220184326172,-0.00014547817409038544,-0.0006848035263828933,0.00015703821554780006,0.022236852,57.043552,Clouds
135210.408,0.001412954181432724,3.026612102985382e-05,0.0003688931465148926,0.0008807675912976265,0.0021500466391444206,0.0013245348818600178,0.025474869,57.043552,Clouds
135210.438,-0.000810110941529274,-0.0003888644278049469,0.0005218386650085449,8.982024155557156e-05,-0.0002503230352886021,0.002668699948117137,0.030217644,57.043552,Clouds
135210.468,-0.0004980843514204025,-2.6219524443149567e-05,-0.0012937188148498535,0.0023029453586786985,0.0008663245243951678,-0.001825063256546855,0.028725151,57.043552,Clouds
135210.497,0.0016409968957304955,0.0008488865569233894,-0.000606834888458252,-0.0006740901153534651,0.00034622117527760565,-0.00018116331193596125,0.027466914,57.043552,Clouds
135210.527,0.0005679735913872719,-0.00021631643176078796,-0.000637054443359375,0.0004771025851368904,-0.000825758557766676,-0.0003736250218935311,0.024117727,57.043552,Clouds
135210.557,-0.001254773698747158,-0.0006594602018594742,-0.0003624558448791504,-6.915978156030178e-05,0.0008694068528711796,-0.0012649139389395714,0.026252937,57.043552,Clouds
135210.587,0.0002839798107743263,0.00040419725701212883,0.0004004836082458496,0.0005492884665727615,-2.1990679670125246e-05,0.0010279769776389003,0.029005775,57.043552,Clouds
135210.617,0.00042874738574028015,-0.00020467257127165794,0.0005987286567687988,-0.00015001394785940647,-0.00017447210848331451,-0.00016350275836884975,0.027700864,57.043552,Clouds
135210.647,-0.0012703491374850273,-0.0002939114347100258,0.0010413527488708496,-0.004323003813624382,-0.0025338055565953255,-0.00017148052575066686,0.029279672,57.043552,Clouds
135210.677,0.0004923846572637558,-2.7115456759929657e-05,0.00044608116149902344,0.0027210447005927563,-0.0012120793107897043,0.0015017809346318245,0.026001936,57.043552,Clouds
135210.707,0.0008745258674025536,-0.00035086367279291153,0.0004462003707885742,0.00016278261318802834,-0.0009364382131025195,0.0011507050367072225,0.024992557,57.043552,Clouds
135210.737,0.0002959398552775383,-0.0007370547391474247,6.508827209472656e-05,-0.0019454472931101918,0.0005269362591207027,0.00019619468366727233,0.04097693,57.043552,Clouds
135210.766,7.904041558504105e-05,-0.0004684850573539734,-0.00010293722152709961,-0.002012298908084631,-0.000284740817733109,-0.0011730421101674438,0.038683105,57.043552,Clouds
135210.796,-0.0004271315410733223,-0.00047324225306510925,0.0010567307472229004,-0.0023666396737098694,-0.0023152956273406744,-0.0007832475821487606,0.037965152,57.043552,Clouds
135210.826,-0.0009529357776045799,0.00017847400158643723,-0.0006371736526489258,0.0009900298900902271,-0.00046396959805861115,-0.0007196739315986633,0.03263923,57.043552,Clouds
135210.856,-0.0005996525287628174,-0.0004450194537639618,-0.000408172607421875,0.0011476713698357344,-0.0025996468029916286,-0.001229076529853046,0.03010058,57.043552,Clouds
135210.886,-0.00020954571664333344,0.00012688105925917625,-0.00010293722152709961,-0.0024065859615802765,0.0012782476842403412,0.00047875550808385015,0.024772082,57.043552,Clouds
135210.916,-0.0008284896612167358,0.00022952677682042122,0.000370025634765625,-0.0013616159558296204,-0.0026758541353046894,-0.0003423632588237524,0.023515565,57.043552,Clouds
135210.945,-0.0010074665769934654,-0.00045545585453510284,-0.00034737586975097656,0.000458958325907588,-0.0012141644256189466,-0.0011692461557686329,0.02175613,57.043552,Clouds
135210.975,-0.0014962032437324524,-0.0007622386328876019,3.409385681152344e-05,-0.0014561861753463745,0.002446364611387253,-0.0007594614871777594,0.020461772,57.043552,Clouds
135211.005,0.000410652719438076,0.00012547289952635765,-2.6881694793701172e-05,-0.001205424894578755,-0.0010202412959188223,-0.002315031597390771,0.019701127,57.043552,Clouds
135211.035,0.002859284169971943,4.41037118434906e-05,-0.0007597208023071289,0.003928057849407196,0.0004958116915076971,0.0007942256634123623,0.018215299,57.043552,Clouds
135211.065,-3.244820982217789e-05,-0.0002865060232579708,0.0004303455352783203,-0.00035827746614813805,-0.0002374069590587169,-0.0006834957166574895,0.017529799,57.043552,Clouds
135211.094,-0.0022203410044312477,0.00026957783848047256,-0.00021076202392578125,-0.00179675396066159,0.0010905396193265915,-0.0003060665330849588,0.016479932,57.043552,Clouds
135211.124,0.0005546482279896736,-0.0010361606255173683,-0.0002110600471496582,-0.002371454145759344,0.0013305232860147953,0.002900723833590746,0.015954904,57.043552,Clouds
135211.154,0.0018648691475391388,0.0004890551790595055,-0.0008062124252319336,-0.0004748813807964325,-0.0022200956009328365,0.0010332334786653519,0.016787525,57.043552,Clouds
135211.184,-0.0013123005628585815,-0.0011696778237819672,-0.0007450580596923828,-0.001724288915283978,0.0005023394478484988,-0.0015664275269955397,0.03273929,57.043552,Clouds
135211.214,-0.002320333383977413,0.0008793813176453114,0.0014219284057617188,-0.0005597725976258516,0.00043299823300912976,0.0015553233679383993,0.03144063,57.043552,Clouds
135211.244,0.0006825793534517288,0.0001880633644759655,-0.0005162358283996582,0.0008212784305214882,0.0014211975503712893,6.592244608327746e-05,0.029406222,57.043552,Clouds
135211.274,0.0007579764351248741,-0.0001118835061788559,-0.0005164146423339844,-0.00019244779832661152,2.8682028641924262e-05,-0.000274647434707731,0.0255162,57.043552,Clouds
135211.303,-0.002346603199839592,-0.0002191527746617794,-0.000577390193939209,-0.00042787520214915276,0.0011755448067560792,-0.00038471148582175374,0.024531873,57.043552,Clouds
135211.333,-0.0020405733957886696,-0.0010085874237120152,0.0004909038543701172,-0.001394080463796854,0.0013197450898587704,0.000474404136184603,0.0228286,57.043552,Clouds
135211.363,0.0033487463369965553,0.001148086041212082,-0.00019592046737670898,0.0005112858489155769,-7.907798863016069e-05,0.0018411970231682062,0.021792026,57.043552,Clouds
135211.393,0.0008772257715463638,0.00041797664016485214,-0.00027167797088623047,-0.0026557405944913626,0.000743732089176774,0.0003677550994325429,0.020854719,57.043552,Clouds
135211.422,-0.0017652371898293495,-0.0007184785790741444,-0.0004394054412841797,-0.0009856100659817457,0.001474991673603654,-0.00016308249905705452,0.019009182,57.043552,Clouds
135211.452,0.0009761536493897438,-0.0003473246470093727,-0.00030225515365600586,0.0008674710988998413,0.0012005820171907544,0.0012661541113629937,0.01813673,57.043552,Clouds
135211.482,0.0012528272345662117,6.035901606082916e-06,-0.0007750988006591797,-0.0014650293160229921,-0.0003413346130400896,0.001615862245671451,0.016816096,57.043552,Clouds
135211.512,-0.0015303893014788628,-0.0004543513059616089,0.0009185671806335449,-0.0013766642659902573,0.0028684972785413265,0.001823205268010497,0.01662653,57.043552,Clouds
135211.541,-0.0015741949900984764,-0.0010497248731553555,0.0007354021072387695,-0.0003123332280665636,5.770650750491768e-05,0.001277985516935587,0.015829282,57.043552,Clouds
135211.571,0.0014663711190223694,-0.00019265199080109596,-0.001064598560333252,0.0002791571896523237,0.00045027813757769763,0.001599184237420559,0.014851023,57.043552,Clouds
135211.601,0.00047405995428562164,0.0013530747964978218,-0.001415550708770752,-0.0011671811807900667,-0.00013898705947212875,0.00025508226826786995,0.02838997,57.043552,Clouds
135211.631,-0.002912447787821293,-0.001152383629232645,4.9114227294921875e-05,0.00022066570818424225,0.00011817931954283267,0.0020077908411622047,0.048067298,57.043552,Clouds
135211.661,0.00017825886607170105,-0.0006450680084526539,-0.0003170967102050781,0.0015001562424004078,0.0021545111667364836,-0.0036886348389089108,0.04665937,57.043552,Clouds
135211.690,0.002237848937511444,-0.0008314847946166992,-0.000805199146270752,-0.0009461988229304552,0.00035511539317667484,0.0017616174882277846,0.045285124,57.043552,Clouds
135211.721,-0.0011379960924386978,8.508097380399704e-06,-0.0007590651512145996,0.0007204415742307901,-0.00034628217690624297,-0.00059597531799227,0.04028664,57.043552,Clouds
135211.751,-0.002466910518705845,-0.0008252803236246109,3.4332275390625e-05,-0.0022115076426416636,0.00019465878722257912,-0.001728986157104373,0.037447322,57.043552,Clouds
135211.781,0.0007174117490649223,-0.0005569267086684704,-0.0005454421043395996,0.000995362875983119,-0.00033323222305625677,-0.0001972439349628985,0.033089686,57.043552,Clouds
135211.810,0.002020171843469143,-0.0003915736451745033,-0.002910435199737549,-0.0014292084379121661,0.0009437519474886358,-0.000273287296295166,0.031054722,57.043552,Clouds
135211.840,-0.001580006442964077,-0.0008898661471903324,0.0009808540344238281,0.001085217809304595,0.0004284087917767465,0.001055324450135231,0.029705899,57.043552,Clouds
135211.870,-0.0008606705814599991,-0.0002382867969572544,-0.0013232231140136719,0.0006616837345063686,0.00032770406687632203,-0.00047179486136883497,0.032120816,57.043552,Clouds
135211.900,0.0012509804219007492,-0.0004909033887088299,-0.0005145668983459473,-0.001264401013031602,0.00028982083313167095,1.5931669622659683e-05,0.031245653,57.043552,Clouds
135211.930,-0.0007937485352158546,-0.0006150528788566589,0.002140641212463379,-0.0012562662595883012,-0.00014990431373007596,-0.001403002766892314,0.028555892,57.043552,Clouds
135211.959,-0.0012655192986130714,-0.0006028749048709869,-0.0005447268486022949,-0.001192669733427465,0.0019713446963578463,0.0010073084849864244,0.02782198,57.043552,Clouds
135211.989,-0.0003946833312511444,-0.0002572378143668175,0.003224194049835205,0.001427333103492856,-0.0007843354251235723,-0.002899404149502516,0.027648017,57.043552,Clouds
135212.019,0.0014281915500760078,1.8650200217962265e-05,-0.002787947654724121,-0.0018083372851833701,0.000630720576737076,0.00012003275332972407,0.025730979,57.043552,Clouds
135212.049,0.00017834827303886414,0.000263383612036705,0.00021821260452270508,-0.005517898593097925,-0.0019475119188427925,-0.0002194817061536014,0.024319632,57.043552,Clouds
135212.078,-0.00028724316507577896,0.00027765892446041107,0.001957714557647705,-3.831647336483002e-05,0.0025493160355836153,-0.0005705303628928959,0.020970074,57.043552,Clouds
135212.108,-0.0006115129217505455,5.961209535598755e-05,-0.003337681293487549,0.0023361891508102417,-0.0013782267924398184,-0.0014313089195638895,0.024546718,57.043552,Clouds
135212.138,0.00020479504019021988,-0.000997588038444519,-0.0012015104293823242,0.00037772534415125847,-0.0024456644896417856,-0.002790984231978655,0.024148405,57.043552,Clouds
135212.168,0.0006559183821082115,0.0008254600688815117,0.0011789202690124512,-0.0032159765250980854,-0.00044704711763188243,0.001615416258573532,0.14448161,57.043552,Clouds
135212.198,-0.0001263003796339035,-0.000299207866191864,0.0005681514739990234,0.0026095188222825527,-7.718602137174457e-05,0.0009903006721287966,0.22504663,57.043552,Clouds
135212.228,-6.44829124212265e-05,-0.0008941045962274075,7.987022399902344e-05,-0.0002620844170451164,-0.003075098153203726,-0.0011477322550490499,0.23887606,57.043552,Clouds
135212.257,0.00014784839004278183,-0.00010779453441500664,0.000934302806854248,-0.0006649184506386518,-0.0020276003051549196,-3.0659197364002466e-05,0.22979188,57.043552,Clouds
135212.287,-4.5318156480789185e-06,0.00022666249424219131,0.00024777650833129883,0.0020837478805333376,-0.0017819092608988285,-0.0011695434805005789,0.2161924,57.043552,Clouds
135212.318,0.0005284743383526802,0.0004279213026165962,-0.0019648075103759766,0.0017489832825958729,-0.0013842827174812555,0.001268946100026369,0.18418223,57.043552,Clouds
135212.347,-0.0005134474486112595,-0.0007487088441848755,-0.0009729266166687012,-0.0012841207208111882,-3.0396331567317247e-05,-0.0019320189021527767,0.16640176,57.043552,Clouds
135212.377,-0.0009214906021952629,0.00022582104429602623,-1.1444091796875e-05,0.0027662506327033043,-0.0017360240453854203,-0.0017604379681870341,0.13537256,57.043552,Clouds
135212.407,0.000554957427084446,0.0009552445262670517,-8.779764175415039e-05,0.0025344830937683582,-0.001499868230894208,-9.709381265565753e-05,0.1223741,57.043552,Clouds
135212.437,-0.0005538659170269966,-0.00043143052607774734,0.001651763916015625,0.00027381652034819126,-0.0015066517516970634,-0.00012705853441730142,0.112370454,57.043552,Clouds
135212.467,-0.000634550116956234,0.0005016052164137363,-0.0013236403465270996,-0.003457895712926984,0.00033652037382125854,-0.00020403380040079355,0.09359439,57.043552,Clouds
135212.496,0.0009841034188866615,-0.0001413305290043354,0.0002936720848083496,0.00270630931481719,0.0012059087166562676,-0.0010625342838466167,0.08462991,57.043552,Clouds
135212.526,-0.0007186764851212502,-0.0002511455677449703,-0.0012021064758300781,9.203818626701832e-05,0.00011136085959151387,0.0005577951669692993,0.06997441,57.043552,Clouds
135212.556,-0.0013169646263122559,-0.00024256575852632523,0.0007967948913574219,-0.002085831481963396,0.0015717584174126387,0.0018529474036768079,0.06465767,57.043552,Clouds
135212.585,0.00019505247473716736,3.730226308107376e-05,-0.0005308389663696289,-0.0007956740446388721,0.002489664126187563,0.002525004558265209,0.058408353,57.043552,Clouds
135212.615,5.787890404462814e-05,8.850498124957085e-05,0.00014072656631469727,0.0014172880910336971,-0.00029347423696890473,0.0006005384493619204,0.04958708,57.043552,Clouds
135212.645,-0.0010999217629432678,-0.00042472919449210167,-0.0010492205619812012,-0.002146730897948146,-0.00029237722628749907,0.00036567836650647223,0.04520519,57.043552,Clouds
135212.675,-0.0002727573737502098,-0.00014074426144361496,0.0005987286567687988,-0.0012215181486681104,-6.874356768094003e-05,-0.000123489648103714,0.03873287,57.043552,Clouds
135212.705,0.00010024011135101318,-8.146790787577629e-05,0.00030916929244995117,0.001503998413681984,0.000218112429138273,0.0012230295687913895,0.036391914,57.043552,Clouds
135212.734,-0.0001574009656906128,0.00042896298691630363,0.0005688071250915527,-0.0043086158111691475,-0.00046233407920226455,-0.0015352980699390173,0.03424498,57.043552,Clouds
135212.765,-0.0004070224240422249,-0.000536537729203701,-0.0006058216094970703,-0.0005760772619396448,-0.0013172081671655178,0.00017032469622790813,0.031715833,57.043552,Clouds
135212.795,0.0001700902357697487,-0.0001606922596693039,9.620189666748047e-05,0.0027752681635320187,-0.0003568956453818828,-0.0005331981810741127,0.030333383,57.043552,Clouds
135212.824,9.579304605722427e-05,-0.00041939597576856613,-0.0003312230110168457,0.00022918428294360638,0.00047287699999287724,0.00207730196416378,0.027951658,57.043552,Clouds
135212.854,-4.5513734221458435e-05,0.0003272336907684803,0.0003707408905029297,0.0016460784245282412,0.0022228483576327562,0.0018071099184453487,0.025914188,57.043552,Clouds
135212.884,-0.000644853338599205,-0.00033810269087553024,-0.0004379749298095703,0.0005479359533637762,0.00043102115159854293,-0.0019942237995564938,0.024949813,57.043552,Clouds
135212.914,0.001474929042160511,-0.00017222529277205467,-2.586841583251953e-05,0.0001939565408974886,0.0018479741411283612,-0.0007393104606308043,0.054911777,57.043552,Clouds
135212.944,-0.00021228287369012833,-0.00011818110942840576,-0.0014754533767700195,-0.0010817137081176043,0.0002364368992857635,0.0008612840319983661,0.051697027,57.043552,Clouds
135212.973,0.00010276958346366882,-0.001268068328499794,-0.0011546611785888672,-0.0008661909960210323,-0.0026173449587076902,-0.003032135311514139,0.04454331,57.043552,Clouds
135213.003,-0.0001338385045528412,-0.000893645454198122,-0.0013068914413452148,-0.00017289770767092705,-0.00044395416625775397,0.0020225425250828266,0.0595178,57.043552,Clouds
135213.033,0.00021049939095973969,0.000620831735432148,-0.000361025333404541,-0.002327245194464922,0.004329275339841843,0.0015532682882621884,0.057164002,57.043552,Clouds
135213.063,0.0005671568214893341,0.0002155960537493229,-0.00022393465042114258,0.0021357315126806498,-0.0003210739232599735,-0.00018433708464726806,0.049387235,57.043552,Clouds
135213.092,0.000888550654053688,-4.042871296405792e-05,-0.0005443096160888672,0.0016290848143398762,-0.00020279332238715142,-0.0007258156547322869,0.045832556,57.043552,Clouds
135213.123,-0.0022592637687921524,-0.0009035365656018257,-0.00026929378509521484,0.00027433596551418304,0.0007591872708871961,-0.0001032881555147469,0.038080346,57.043552,Clouds
135213.153,-0.0011990973725914955,-4.452979192137718e-05,-0.0015660524368286133,-0.0009576943702995777,-0.0015653125010430813,0.0003898681316059083,0.03474366,57.043552,Clouds
135213.182,0.003382524475455284,0.0001697111874818802,-0.0004824995994567871,0.001562268938869238,0.0008470574393868446,-0.0006947070942260325,0.03167297,57.043552,Clouds
135213.212,0.0002460945397615433,-0.00042336340993642807,0.00021916627883911133,0.0005772216245532036,0.0014253482222557068,-0.0001391206751577556,0.09985254,57.043552,Clouds
135213.242,-0.003274529241025448,-0.0010135187767446041,0.0004940629005432129,0.0004598891828209162,0.0006996502634137869,0.0007080426439642906,0.09683112,57.043552,Clouds
135213.272,-6.158184260129929e-05,-0.000748765654861927,0.0003415346145629883,0.00043342611752450466,0.0002578143903519958,-0.0009687939309515059,0.085212655,57.043552,Clouds
135213.302,0.0039417920634150505,0.00015181861817836761,-0.0021608471870422363,0.0009467066265642643,-0.0007269642082974315,-3.3081043511629105e-05,0.08031298,57.043552,Clouds
135213.332,-0.00031372345983982086,-0.00033389171585440636,-0.000848233699798584,0.0022699295077472925,-0.0003940870228689164,0.00019733168301172554,0.076544225,57.043552,Clouds
135213.361,-0.0022686179727315903,-0.0010626474395394325,0.0011661648750305176,0.0011649352964013815,-0.001250567613169551,-0.001490477123297751,0.06659547,57.043552,Clouds
135213.391,0.0005918927490711212,-0.00014898134395480156,-0.0004512667655944824,0.0016059873159974813,-0.0011460240930318832,-0.0004102246602997184,0.06079763,57.043552,Clouds
135213.421,0.002258775755763054,0.00025379471480846405,-0.0013513565063476562,0.002070068381726742,-0.0009186191018670797,-0.0009584546205587685,0.055746287,57.043552,Clouds
135213.451,-0.0008377525955438614,-0.0002887980081140995,-0.001015782356262207,0.0001494716852903366,0.0007496721227653325,-0.001878888811916113,0.0943311,57.043552,Clouds
135213.481,-0.0018164245411753654,2.9074493795633316e-05,-6.967782974243164e-05,0.001699244137853384,0.0007742544985376298,-0.0001423050998710096,0.09048157,57.043552,Clouds
135213.511,0.0001653255894780159,-0.0002424679696559906,-0.0013360977172851562,-7.953750900924206e-05,-0.001828077482059598,0.0005727483076043427,0.084379695,57.043552,Clouds
135213.540,0.002321092411875725,-0.00011918600648641586,0.0014566779136657715,0.0018382214475423098,0.001114303944632411,-0.0012457248521968722,0.07839748,57.043552,Clouds
135213.570,0.0002237129956483841,-0.0017939452081918716,-0.0009390115737915039,-0.0017861367668956518,-0.000852988101541996,-0.0004698643460869789,0.07228275,57.043552,Clouds
135213.600,0.00020098872482776642,-0.0005963994190096855,-0.0003744363784790039,-0.0010765730403363705,-0.0009710111189633608,-0.0001376234577037394,0.060918458,57.043552,Clouds
135213.630,0.0008438369259238243,-0.00047592446208000183,0.0006173849105834961,-0.00313524785451591,-0.00144581135828048,-0.001882775453850627,0.05576326,57.043552,Clouds
135213.660,0.00011853035539388657,-0.00032157590612769127,3.725290298461914e-05,-0.0012602187925949693,0.0012008061166852713,-0.0019209375604987144,0.047478266,57.043552,Clouds
135213.690,-0.00019021332263946533,9.758677333593369e-05,-0.00020712614059448242,-0.0005559616256505251,-0.0014634684193879366,0.0003416366525925696,0.043770425,57.043552,Clouds
135213.719,0.0016513979062438011,0.000670731533318758,-0.0011685490608215332,-0.00227937800809741,1.00143370218575e-06,0.00018754060147330165,0.041928306,57.043552,Clouds
135213.749,-0.0005619172006845474,0.000909911934286356,0.00020486116409301758,0.0005658473819494247,-0.00158114661462605,-0.0009827311150729656,0.03622973,57.043552,Clouds
135213.779,-0.0014073066413402557,-0.0010504759848117828,0.0005252957344055176,-0.002023295033723116,-9.425467578694224e-05,0.0008001319947652519,0.03423079,57.043552,Clouds
135213.809,0.0012560077011585236,-0.0004819580353796482,0.0004947185516357422,0.0014606178738176823,-0.0023575504310429096,0.0011607003398239613,0.035301227,57.043552,Clouds
135213.838,0.001324220560491085,0.0009001502767205238,0.00020486116409301758,-0.001963482005521655,-0.0019970741122961044,0.0020336289890110493,0.0331932,57.043552,Clouds
135213.868,-0.0013849325478076935,-0.000558868981897831,0.0012730956077575684,-0.0001196006778627634,-0.0022224055137485266,-0.0008682679617777467,0.031853806,57.043552,Clouds
135213.898,-0.0001525934785604477,-0.0005693514831364155,-0.0004972219467163086,0.0008351269643753767,0.00027766998391598463,0.0019836933352053165,0.02956211,57.043552,Clouds
135213.928,0.001516200602054596,0.00029070768505334854,-0.0004667043685913086,-0.0021346425637602806,-0.0008659695740789175,-0.00024769280571490526,0.027012493,57.043552,Clouds
135213.958,-0.0003165705129504204,-8.153589442372322e-05,-0.0007261037826538086,0.0021060584113001823,-8.376469486393034e-05,0.0024796859361231327,0.023794504,57.043552,Clouds
135213.987,-0.0020824261009693146,-0.00010529812425374985,-0.000695645809173584,0.0016737265978008509,-0.0012418858241289854,-0.0012951937969774008,0.022487102,57.043552,Clouds
135214.018,7.35623762011528e-05,-0.0004980391822755337,0.0003420114517211914,0.0014602988958358765,-0.001191867282614112,-0.0011394121684134007,0.029980563,57.043552,Clouds
135214.047,0.0010070810094475746,6.606243550777435e-05,-0.00013136863708496094,0.0002412733156234026,0.0010994930053129792,-0.0027580028399825096,0.039755825,57.043552,Clouds
135214.077,-0.0003510136157274246,-0.0007504899986088276,0.0012112855911254883,-0.00113847223110497,0.0011927289888262749,-0.00018953694961965084,0.03730401,57.043552,Clouds
135214.107,-0.0010806694626808167,-0.0011487710289657116,0.0006771683692932129,0.003674427978694439,0.0007581102545373142,0.002779880538582802,0.033113167,57.043552,Clouds
135214.137,0.0009341146796941757,-4.495307803153992e-05,-0.0006659030914306641,0.0014361583162099123,0.0010262085124850273,0.00022029472165741026,0.031356666,57.043552,Clouds
135214.167,0.00016391649842262268,0.0003394708037376404,-0.0005436539649963379,0.0007739977445453405,-0.0006387759931385517,-0.0015747013967484236,0.034331154,57.043552,Clouds
135214.196,-0.0012295031920075417,-0.000982846599072218,2.1219253540039062e-05,-0.000484818359836936,0.0013256046222522855,0.0014852150343358517,0.029862614,57.043552,Clouds
135214.226,-0.0001132376492023468,0.0002413676120340824,8.213520050048828e-05,-0.0009239234495908022,-0.0005570584908127785,-0.001287774066440761,0.027912341,57.043552,Clouds
135214.256,0.001216961070895195,-0.00035491492599248886,-0.0008790493011474609,0.0017420272342860699,-0.00017350816051475704,-2.851791214197874e-05,0.024476381,57.043552,Clouds
135214.286,0.0005918042734265327,-0.0004261210560798645,-0.0006347298622131348,-0.0021393820643424988,8.541170973330736e-05,-0.001796659198589623,0.023982141,57.043552,Clouds
135214.316,-0.0013015931472182274,-0.0008489913307130337,-8.881092071533203e-06,-0.0007496001198887825,0.0010336700361222029,-8.919258834794164e-05,0.023545424,57.043552,Clouds
135214.345,0.0004697684198617935,-0.00024603912606835365,0.0002963542938232422,0.003048722166568041,0.0011290614493191242,-0.0022421078756451607,0.34090304,57.043552,Clouds
135214.375,0.0020228493958711624,0.00026751914992928505,0.00014394521713256836,-0.0010298355482518673,-0.0001864332298282534,6.122078048065305e-05,0.33634573,57.043552,Clouds
135214.405,0.0003137430176138878,-0.001373587641865015,-0.0011530518531799316,-0.00045170332305133343,-3.5793607821688056e-05,-0.0007175052305683494,0.28924334,57.043552,Clouds
135214.435,0.00012387707829475403,-0.00021779583767056465,0.00176161527633667,-0.003546364139765501,-0.0026410825084894896,0.00013167195720598102,0.26340163,57.043552,Clouds
135214.465,0.0009340550750494003,0.0006624357774853706,0.0002815723419189453,0.0011013809125870466,0.003974064718931913,0.0012701826635748148,0.25345454,57.043552,Clouds
135214.495,-0.0002716910094022751,-0.0016474449075758457,0.00011390447616577148,-0.0011423479299992323,-0.001225838204845786,-0.0007813468109816313,0.37824485,57.043552,Clouds
135214.525,-0.0009531052783131599,-5.296478047966957e-05,0.0021433234214782715,0.0018858201801776886,0.0008249322418123484,0.0006628199480473995,0.36872497,57.043552,Clouds
135214.554,0.0006000855937600136,-0.0008058534003794193,0.00133436918258667,0.0001865113154053688,0.0017659978475421667,0.0005577534320764244,0.45601425,57.043552,Clouds
135214.584,0.0015490306541323662,-0.000535658560693264,-0.0024344921112060547,-0.0011011826572939754,-0.000849551463034004,-0.0002556153922341764,0.42781353,57.043552,Clouds
135214.614,-0.00011392775923013687,-2.5284476578235626e-05,0.0039594173431396484,-0.002286665141582489,-0.00037421350134536624,-0.00027257896726951003,0.3825847,57.043552,Clouds
135214.644,0.0004933197051286697,0.00036119716241955757,0.0004195570945739746,-0.0009166437666863203,-0.0011827126145362854,-0.0007600929820910096,0.30556676,57.043552,Clouds
135214.674,-0.0014537172392010689,0.00022881710901856422,-0.003242194652557373,-0.0005760716740041971,-0.000715296424459666,-0.0006243978277780116,0.27743113,57.043552,Clouds
135214.704,-0.00046036671847105026,-0.0007918020710349083,-0.0007090568542480469,0.002744309836998582,-0.0013987114652991295,-9.752833284437656e-05,0.33292964,57.043552,Clouds
135214.733,0.0018174843862652779,3.557419404387474e-05,0.0003434419631958008,5.481182597577572e-05,0.002710712840780616,-0.0015474936226382852,0.32302466,57.043552,Clouds