Timestamp,AccelX,AccelY,AccelZ,GyroX,GyroY,GyroZ,AudioLevel,LightLevel,Weather
134914.212,-0.09030970931053162,-0.11967712640762329,0.10487771034240723,0.24319611489772797,-0.25620704889297485,-0.1903586983680725,0.22246425,57.043552,Clouds
134914.243,-0.0737999752163887,-0.09698647260665894,0.14088547229766846,0.4596821963787079,-0.24149423837661743,-0.6629369258880615,0.20457074,57.043552,Clouds
134914.272,-0.06416614353656769,-0.056243062019348145,0.12591224908828735,0.03675258159637451,-0.623909592628479,-0.8923856019973755,0.16812369,57.043552,Clouds
134914.302,-0.021004199981689453,0.0009689927101135254,0.008364439010620117,-1.2097247838974,-1.3526391983032227,-0.7035609483718872,0.15220359,57.043552,Clouds
134914.332,0.06552846729755402,0.007249295711517334,0.05830198526382446,-1.7784113883972168,-1.0674771070480347,-0.3838070034980774,0.13984276,57.043552,Clouds
134914.363,0.15439707040786743,-0.0644834041595459,0.17921018600463867,-0.6535909175872803,-0.08003075420856476,-0.9929690361022949,0.11956831,57.043552,Clouds
134914.392,0.09009328484535217,-0.07938504219055176,-0.0900391936302185,1.1820718050003052,0.42398887872695923,-1.7953882217407227,0.11033952,57.043552,Clouds
134914.423,-0.15303827822208405,-0.07408779859542847,-0.02742612361907959,1.3422980308532715,0.5803274512290955,-1.170609712600708,0.09875922,57.043552,Clouds
134914.452,-0.017515316605567932,0.03989839553833008,0.06913334131240845,0.4743417203426361,1.4617209434509277,-0.5158385634422302,0.09128898,57.043552,Clouds
134914.482,0.053564563393592834,-0.02572321891784668,-0.10342037677764893,-0.6503233313560486,0.8072997331619263,-0.18218618631362915,0.08840691,57.043552,Clouds
134914.512,0.010710790753364563,-0.02264958620071411,-0.23261034488677979,-1.2648476362228394,-0.3585643768310547,0.3433680534362793,0.105802536,57.043552,Clouds
134914.542,-0.145785391330719,0.31494206190109253,-0.036978840827941895,-0.979492723941803,0.8963751792907715,0.06677273660898209,0.10339869,57.043552,Clouds
134914.572,-0.05778732895851135,0.15948820114135742,-0.020637989044189453,-0.36189910769462585,1.7701847553253174,-0.3494549095630646,0.09102807,57.043552,Clouds
134914.601,0.08447444438934326,-0.042471885681152344,-0.12997734546661377,-0.11662637442350388,1.8748952150344849,0.0548790879547596,0.085077405,57.043552,Clouds
134914.631,-0.011310964822769165,0.01520615816116333,0.014613807201385498,0.5355892777442932,1.2435462474822998,0.3315792977809906,0.0840711,57.043552,Clouds
134914.661,-0.0032813847064971924,0.06173062324523926,-0.01989036798477173,1.81138014793396,0.12023122608661652,-0.5253928303718567,0.076355495,57.043552,Clouds
134914.691,-0.03339451551437378,0.23831641674041748,-0.12627577781677246,1.1245613098144531,0.1504373848438263,-0.30311891436576843,0.07478315,57.043552,Clouds
134914.721,-0.11965271830558777,0.13098156452178955,-0.0643196702003479,-0.1254349797964096,0.09583362936973572,0.3858692944049835,0.07469225,57.043552,Clouds
134914.750,-0.15873172879219055,0.019638657569885254,0.1066664457321167,0.4584907591342926,-0.01659819856286049,0.4156157374382019,0.07151489,57.043552,Clouds
134914.780,-0.10869744420051575,0.05402570962905884,0.16449928283691406,1.6585105657577515,-0.4222909212112427,0.0032343112397938967,0.0668359,57.043552,Clouds
134914.810,-0.0646914541721344,0.07940542697906494,-0.024580061435699463,1.3782129287719727,-0.9411745667457581,-0.4200330376625061,0.058351513,57.043552,Clouds
134914.840,-0.08922761678695679,0.05976957082748413,-0.1451706886291504,0.231312558054924,-0.3458133041858673,-0.42064306139945984,0.055590715,57.043552,Clouds
134914.870,0.1924971640110016,-0.2134007215499878,-0.4862973690032959,-0.8393521904945374,-1.8463871479034424,-0.17262732982635498,0.04880758,57.043552,Clouds
134914.899,-0.0977320671081543,0.07139688730239868,-0.1789965033531189,-0.3974343538284302,-1.3457924127578735,0.5530457496643066,0.048173826,57.043552,Clouds
134914.929,-0.0201728492975235,0.14297837018966675,-0.030659079551696777,-0.6535122990608215,-0.7863262891769409,1.0547211170196533,0.044821206,57.043552,Clouds
134914.959,0.15723542869091034,0.17936617136001587,0.10952568054199219,-0.8793490529060364,-1.0918501615524292,0.8541321158409119,0.041381676,57.043552,Clouds
134914.989,0.2265760898590088,-0.08794254064559937,-0.1392185091972351,-0.527576208114624,-0.8901394605636597,0.6962984800338745,0.040117003,57.043552,Clouds
134915.019,0.12755811214447021,-0.18134301900863647,-0.11024361848831177,-0.01915808953344822,-0.22724291682243347,0.47522833943367004,0.0699945,57.043552,Clouds
134915.048,0.06905502825975418,-0.04026997089385986,-0.011534631252288818,0.23680172860622406,0.09481479972600937,0.4138488173484802,0.06629003,57.043552,Clouds
134915.078,0.07943625748157501,0.06429481506347656,-0.040917813777923584,-0.09142069518566132,-0.23818281292915344,0.4591265618801117,0.06206383,57.043552,Clouds
134915.108,0.01609572023153305,0.10074180364608765,0.04919618368148804,0.11019358783960342,0.30696016550064087,0.3494073450565338,0.054783028,57.043552,Clouds
134915.138,0.01691018044948578,0.02953261137008667,0.0021255016326904297,0.04163168743252754,0.17817473411560059,0.5156344771385193,0.051748704,57.043552,Clouds
134915.168,0.04475264251232147,0.002016603946685791,0.008014321327209473,-0.04984774813055992,-0.29340556263923645,0.5291382074356079,0.045997314,57.043552,Clouds
134915.198,0.02332073077559471,-0.008973956108093262,-0.0024679899215698242,0.05885343626141548,-0.23002132773399353,0.3276108205318451,0.04240903,57.043552,Clouds
134915.227,-0.02157270535826683,-0.023902595043182373,-0.007380545139312744,0.047723378986120224,-0.09558562934398651,0.25424039363861084,0.039776966,57.043552,Clouds
134915.257,-0.0472598671913147,-0.02612125873565674,0.0014545321464538574,0.03005388006567955,-0.16251859068870544,0.19572702050209045,0.034259412,57.043552,Clouds
134915.286,-0.028232010081410408,-0.03744995594024658,0.004462242126464844,0.11553090065717697,0.019041884690523148,-0.10449769347906113,0.031752847,57.043552,Clouds
134915.317,-0.045131392776966095,-0.04152184724807739,-0.0018384456634521484,-0.14194805920124054,-0.013918719254434109,-0.09036268293857574,0.02852206,57.043552,Clouds
134915.346,-0.0037171747535467148,-0.0014747381210327148,0.042171478271484375,-0.28543388843536377,-0.2607341408729553,-0.04548848420381546,0.02712311,57.043552,Clouds
134915.377,-0.023916024714708328,0.004749476909637451,0.021463096141815186,-0.33004918694496155,-0.24334518611431122,-0.11200869083404541,0.026760152,57.043552,Clouds
134915.406,-0.020958801731467247,-0.009757816791534424,0.002600252628326416,-0.13517874479293823,-0.17737428843975067,-0.1601952761411667,0.023532676,57.043552,Clouds
134915.436,0.019291307777166367,-0.005123436450958252,0.010174870491027832,-0.05144045129418373,-0.32134300470352173,-0.23620830476284027,0.022738975,57.043552,Clouds
134915.466,-0.0069513507187366486,0.015523314476013184,-0.009435832500457764,-0.13567836582660675,-0.3618471324443817,-0.14109309017658234,0.06544186,57.043552,Clouds
134915.496,-0.006840953603386879,0.022560477256774902,-0.02269721031188965,-0.15774957835674286,-0.1559654027223587,-0.0060424585826694965,0.07530659,57.043552,Clouds
134915.526,0.012724569998681545,0.018397033214569092,-0.011973679065704346,-0.09865569323301315,0.024506114423274994,0.08450458198785782,0.072771385,57.043552,Clouds
134915.555,0.019578468054533005,0.0009875297546386719,-0.0009661316871643066,-0.06003107503056526,-0.0186631940305233,0.008891843259334564,0.066261664,57.043552,Clouds
134915.585,0.02439970336854458,-0.002278923988342285,0.0036437511444091797,0.0759340152144432,-0.29920339584350586,-0.16744160652160645,0.06460186,57.043552,Clouds
134915.615,0.0015956196002662182,0.017277657985687256,-0.016304194927215576,0.09270193427801132,-0.24939514696598053,-0.0702996626496315,0.057269733,57.043552,Clouds
134915.645,0.007114948704838753,0.016146481037139893,-0.029188036918640137,-0.13265042006969452,-0.09838008135557175,0.13650506734848022,0.056305736,57.043552,Clouds
134915.675,-0.010619854554533958,-0.011610746383666992,-0.009541153907775879,-0.27534329891204834,-0.08237671852111816,0.15773160755634308,0.13263959,57.043552,Clouds
134915.704,-0.00654710503295064,-0.025220394134521484,-0.009404540061950684,-0.4269571602344513,-0.14725534617900848,0.001404382986947894,0.12394508,57.043552,Clouds
134915.734,-0.016303950920701027,-0.0012685656547546387,3.2961368560791016e-05,-0.09786948561668396,-0.039215389639139175,-0.09582066535949707,0.116538435,57.043552,Clouds
134915.764,-0.013030607253313065,0.013450026512145996,-0.03077065944671631,0.23146608471870422,0.16937097907066345,-0.010003902949392796,0.105471835,57.043552,Clouds
134915.794,-0.000926932436414063,-0.0015551447868347168,-0.03647339344024658,0.11590274423360825,0.1872640699148178,0.08105901628732681,0.10531907,57.043552,Clouds
134915.824,0.018677838146686554,-0.003320455551147461,-0.020641565322875977,-0.007661410141736269,-0.024932218715548515,0.07687032967805862,0.102751814,57.043552,Clouds
134915.854,0.025074800476431847,-0.0053558349609375,-0.014119148254394531,-0.10874088853597641,-0.13202689588069916,-0.06782639771699905,0.15316232,57.043552,Clouds
134915.883,0.007571463007479906,0.00513005256652832,-0.01346510648727417,-0.11875763535499573,0.09342151135206223,-0.17960502207279205,0.14597732,57.043552,Clouds
134915.913,-0.01491343043744564,0.012968361377716064,-0.0013141632080078125,0.05312276631593704,0.24807940423488617,-0.13627710938453674,0.13110445,57.043552,Clouds
134915.943,-0.0016957875341176987,0.01505589485168457,0.012503743171691895,0.03466067835688591,0.06489749997854233,0.04858354479074478,0.119253896,57.043552,Clouds
134915.973,0.011055887676775455,0.011279940605163574,0.021987080574035645,-0.039417754858732224,0.0040624202229082584,0.12324290722608566,0.11423659,57.043552,Clouds
134916.003,0.00477912463247776,0.0011671185493469238,0.007831454277038574,-0.16980570554733276,0.023110121488571167,0.10734681785106659,0.10353487,57.043552,Clouds
134916.033,-0.007378094829618931,-0.0017392635345458984,-0.004226624965667725,-0.35843461751937866,-0.008868604898452759,0.07315430790185928,0.09433141,57.043552,Clouds
134916.062,0.006051089148968458,0.002474546432495117,-0.008008897304534912,-0.2928018569946289,-0.04251217842102051,0.02912900783121586,0.080577806,57.043552,Clouds
134916.092,-0.003911213483661413,0.0038530826568603516,-0.01807582378387451,-0.02028532326221466,-0.001068608253262937,0.025510475039482117,0.07253471,57.043552,Clouds
134916.122,-0.0227477066218853,-0.0008805990219116211,-0.01952904462814331,0.10754314064979553,0.18713876605033875,0.033403899520635605,0.06559634,57.043552,Clouds
134916.152,-7.814541459083557e-05,-0.006506979465484619,0.004407763481140137,0.10920974612236023,0.15594005584716797,0.007826261222362518,0.054169178,57.043552,Clouds
134916.182,0.0018461523577570915,-0.003626883029937744,0.019065558910369873,0.029199140146374702,0.07651166617870331,-0.030022824183106422,0.048982512,57.043552,Clouds
134916.212,0.0038846461102366447,0.009917676448822021,0.012649893760681152,-0.05987740680575371,0.04752758890390396,-0.007646514568477869,0.040714476,57.043552,Clouds
134916.241,0.006945110857486725,0.01524442434310913,-0.009476661682128906,-0.05419542267918587,0.005410872865468264,0.06582044064998627,0.03702335,57.043552,Clouds
134916.271,-0.0005740625783801079,0.015567302703857422,-0.029536664485931396,-0.025991814211010933,0.0781656950712204,0.1107504814863205,0.03346668,57.043552,Clouds
134916.301,0.004601161926984787,0.0034711360931396484,-0.03349566459655762,-0.0766112431883812,0.14470574259757996,0.17250694334506989,0.035519347,57.043552,Clouds
134916.331,0.005661211907863617,-0.010482370853424072,0.005856037139892578,0.04773510992527008,0.13296282291412354,0.0827244445681572,0.052270018,57.043552,Clouds
134916.361,-0.00213492289185524,-0.013608157634735107,0.01084887981414795,0.08324785530567169,0.1471165269613266,-0.06672549992799759,0.17035523,57.043552,Clouds
134916.391,-0.01566852442920208,0.0027228593826293945,0.03031611442565918,-0.009354246780276299,0.09817744046449661,-0.03782661259174347,0.16078788,57.043552,Clouds
134916.421,0.001476440578699112,0.006541311740875244,0.031184077262878418,-0.02435549907386303,0.02153666876256466,-0.023895850405097008,0.14770265,57.043552,Clouds
134916.450,-0.0021418314427137375,0.006832897663116455,0.014332294464111328,-0.1128380224108696,-0.05486461892724037,-0.007677373010665178,0.12436074,57.043552,Clouds
134916.480,0.0038895457983016968,-0.0036163926124572754,0.005107104778289795,-0.08541326224803925,-0.09824628382921219,-0.04601501300930977,0.11340263,57.043552,Clouds
134916.510,0.0021641552448272705,-0.0033490657806396484,-0.027934551239013672,-0.04772014543414116,-0.07356100529432297,-0.06990580260753632,0.09960984,57.043552,Clouds
134916.540,-0.000471627339720726,0.008365392684936523,-0.026742398738861084,0.01675005815923214,0.06308336555957794,-0.037684399634599686,0.09445106,57.043552,Clouds
134916.570,0.010636337101459503,0.0041814446449279785,-0.008423030376434326,0.06862521916627884,0.025615539401769638,-0.014776147902011871,0.10879334,57.043552,Clouds
134916.600,0.006562929600477219,0.004879951477050781,0.01106405258178711,0.03538858890533447,-0.02100556530058384,-0.0029576499946415424,0.10999544,57.043552,Clouds
134916.629,-0.0053958650678396225,0.00819849967956543,0.014527618885040283,-0.0801653042435646,0.06427904218435287,0.007886001840233803,0.109322205,57.043552,Clouds
134916.659,0.0025627706199884415,0.007644772529602051,0.02437049150466919,-0.08238484710454941,0.04489105939865112,0.012511484324932098,0.10179859,57.043552,Clouds
134916.689,0.005034947767853737,0.0031582117080688477,0.008830487728118896,-0.049415916204452515,-0.09873761981725693,0.04073755070567131,0.09557964,57.043552,Clouds
134916.719,0.0027522221207618713,0.004936516284942627,-0.026196599006652832,-0.03545417636632919,-0.1349179893732071,0.05707142874598503,0.09057147,57.043552,Clouds
134916.749,-0.003456767648458481,0.0007107853889465332,-0.03825634717941284,0.050487782806158066,-0.012325990945100784,0.017846224829554558,0.18947639,57.043552,Clouds
134916.778,0.002082550898194313,-0.006151914596557617,-0.020236611366271973,0.042564745992422104,0.081514373421669,0.0047078547067940235,0.24794443,57.043552,Clouds
134916.808,0.010541576892137527,0.0004487037658691406,0.008899152278900146,0.010570925660431385,0.009532802738249302,0.003339823568239808,0.23296833,57.043552,Clouds
134916.838,-0.006098372861742973,0.014463484287261963,0.02104109525680542,-0.0013878692407160997,0.060192499309778214,0.012630870565772057,0.21987952,57.043552,Clouds
134916.868,-0.0069185588508844376,0.0064667463302612305,0.013475656509399414,0.04376063123345375,0.06514425575733185,0.03634466603398323,0.2010652,57.043552,Clouds
134916.898,-0.003464478999376297,-0.001843571662902832,0.009481489658355713,0.09907402843236923,0.038850411772727966,0.01899329200387001,0.16492872,57.043552,Clouds
134916.927,0.01017565093934536,-0.004427015781402588,-0.0024431347846984863,0.01644887402653694,-0.07931040972471237,-0.0009535770514048636,0.1486308,57.043552,Clouds
134916.957,0.0025633275508880615,0.00034606456756591797,-0.018232405185699463,-0.09049572050571442,-0.11142128705978394,-0.005879499483853579,0.12376739,57.043552,Clouds
134916.987,0.004843469709157944,0.005720615386962891,-0.02087169885635376,-0.06390706449747086,-0.006330539938062429,-0.015343486331403255,0.1154981,57.043552,Clouds
134917.017,-0.002531265839934349,0.005941569805145264,0.0016436576843261719,0.0381939597427845,0.05467383936047554,-0.005642375443130732,0.11441884,57.043552,Clouds
134917.047,0.0013968031853437424,0.0020062923431396484,0.008754551410675049,0.10658779740333557,0.03928762301802635,-0.03298141062259674,0.097759135,57.043552,Clouds
134917.076,-0.00391291081905365,0.004271388053894043,0.007262468338012695,0.05744515731930733,0.006089435890316963,0.007148779928684235,0.09310189,57.043552,Clouds
134917.106,-0.007075909525156021,-0.0012832283973693848,0.006409108638763428,-0.005818169564008713,0.027517883107066154,-0.0038266154006123543,0.13383375,57.043552,Clouds
134917.136,0.006953371688723564,-0.0010578036308288574,-0.0005973577499389648,-0.031929079443216324,-0.05567093566060066,0.02314123325049877,0.13374797,57.043552,Clouds
134917.166,0.005349272862076759,-0.001517951488494873,-0.01767146587371826,-0.099834144115448,-0.10311225056648254,-0.003920486196875572,0.12826478,57.043552,Clouds
134917.196,-0.001355879008769989,0.007884860038757324,-0.0156707763671875,-0.10346103459596634,0.057754915207624435,-0.003712054807692766,0.11056547,57.043552,Clouds
134917.226,0.009953023865818977,0.00841742753982544,0.008422136306762695,0.005793415009975433,-0.0210079625248909,0.044166985899209976,0.100663245,57.043552,Clouds
134917.255,-0.000842987559735775,0.011527717113494873,0.020551443099975586,0.15643945336341858,-0.05652526393532753,0.031200088560581207,0.0909893,57.043552,Clouds
134917.285,-0.006410069763660431,0.0034180879592895508,0.00231248140335083,0.1285148710012436,0.007557180244475603,0.01898321881890297,0.074197225,57.043552,Clouds
134917.315,-9.50181856751442e-05,-0.008639037609100342,-0.00033742189407348633,-0.09963321685791016,0.04523063451051712,0.006209563463926315,0.06772597,57.043552,Clouds
134917.345,0.0028258375823497772,0.00033289194107055664,0.004221796989440918,-0.15156671404838562,-0.003415506100282073,0.004983869846910238,0.05727885,57.043552,Clouds
134917.375,0.008575852029025555,0.010986030101776123,-0.0024296045303344727,-0.04568157345056534,-0.10871263593435287,0.0368722602725029,0.055083454,57.043552,Clouds
134917.405,0.004256400279700756,0.0071909427642822266,-0.030011355876922607,0.009176958352327347,-0.07855097204446793,0.06790213286876678,0.052994832,57.043552,Clouds
134917.435,-0.0019528912380337715,-0.000776827335357666,-0.022351562976837158,0.00223642960190773,0.007767238188534975,0.0706370398402214,0.08924067,57.043552,Clouds
134917.464,0.004533883649855852,-0.007414698600769043,-0.004773139953613281,0.01060195080935955,0.01309888530522585,0.010159044526517391,0.11330451,57.043552,Clouds
134917.494,-0.009043346159160137,0.006812334060668945,0.021981358528137207,0.0019046599045395851,0.0541287325322628,-0.018276304006576538,0.107575856,57.043552,Clouds
134917.524,-0.00369249377399683,0.00445789098739624,0.021305978298187256,-0.018076563253998756,0.02738306112587452,-0.006257873959839344,0.10111493,57.043552,Clouds
134917.554,-0.005955878645181656,0.0003007054328918457,0.013411402702331543,-0.005595743656158447,-0.033189330250024796,0.02030150406062603,0.09379473,57.043552,Clouds
134917.584,0.004455110523849726,-0.006135225296020508,-0.0069228410720825195,-0.06600627303123474,-0.08439735323190689,-0.003611235413700342,0.082225114,57.043552,Clouds
134917.613,-0.004452415741980076,0.004346191883087158,-0.028653740882873535,-0.10247136652469635,-0.013077236711978912,-0.009146771393716335,0.07635618,57.043552,Clouds
134917.643,0.003215428441762924,0.004984855651855469,-0.02173483371734619,0.018188420683145523,0.026126019656658173,0.013112340122461319,0.06436205,57.043552,Clouds
134917.673,0.011309092864394188,-0.0002930760383605957,-0.011101245880126953,0.06989576667547226,0.00278270966373384,0.027957413345575333,0.058383923,57.043552,Clouds
134917.702,0.0037459521554410458,0.0021253228187561035,0.0006617307662963867,0.018047533929347992,-0.009135658852756023,0.021178750321269035,0.056246653,57.043552,Clouds
134917.732,-0.009566746652126312,0.006384432315826416,0.020206034183502197,0.07196244597434998,0.04529096558690071,-0.0338478647172451,0.058177207,57.043552,Clouds
134917.763,-0.0010064877569675446,0.0020561814308166504,0.01846545934677124,0.011018968187272549,0.06264358013868332,-0.03519422560930252,0.09170176,57.043552,Clouds
134917.793,0.004356528632342815,-0.0004677772521972656,0.013851702213287354,-0.06931892037391663,-0.05645819008350372,0.023300040513277054,0.08059716,57.043552,Clouds
134917.822,0.002656137105077505,0.004164338111877441,-0.007250607013702393,-0.10892412066459656,-0.11847575008869171,0.04254138097167015,0.0750914,57.043552,Clouds
134917.852,-0.004461793228983879,0.0018306374549865723,-0.03958022594451904,-0.10875418782234192,-0.056367695331573486,0.02721353992819786,0.06922579,57.043552,Clouds
134917.882,0.0017877155914902687,-0.0008987784385681152,-0.022718310356140137,0.08640336245298386,0.11723893880844116,-0.010643115267157555,0.057547327,57.043552,Clouds
134917.912,0.00864114798605442,-0.004943788051605225,0.0017704367637634277,0.12397108972072601,0.04042566940188408,-0.032639313489198685,0.053310964,57.043552,Clouds
134917.942,-0.0017811660654842854,0.004106998443603516,0.0059784650802612305,0.0341809019446373,-0.06202993541955948,-0.010778011754155159,0.044052612,57.043552,Clouds
134917.971,-0.011769245378673077,0.008423209190368652,0.012853920459747314,-0.057040538638830185,0.05359048396348953,0.005307667423039675,0.040717438,57.043552,Clouds
134918.001,0.0015454581007361412,0.0014188289642333984,0.02327054738998413,-0.05688023567199707,0.02556639537215233,0.006720980629324913,0.043232158,57.043552,Clouds
134918.031,0.0033379136584699154,-0.0008807182312011719,0.006668150424957275,-0.03036295250058174,-0.07281608879566193,-0.008558817207813263,0.08662567,57.043552,Clouds
134918.061,-0.0014554760418832302,0.007104277610778809,-0.017086267471313477,-0.08342915773391724,-0.041459087282419205,0.019833657890558243,0.08646872,57.043552,Clouds
134918.090,8.795550093054771e-05,0.005432069301605225,-0.014861762523651123,-0.02902734838426113,0.032802172005176544,0.02629147842526436,0.090456344,57.043552,Clouds
134918.121,0.013880040496587753,-0.006584107875823975,-0.022541165351867676,0.06937603652477264,0.01499412301927805,-0.018323084339499474,0.08503036,57.043552,Clouds
134918.150,-0.003509135451167822,-0.002515256404876709,-0.014476895332336426,0.022342488169670105,0.019311416894197464,-0.004289682954549789,0.09337338,57.043552,Clouds
134918.180,-0.0068474747240543365,0.009414374828338623,0.023268818855285645,0.04261558875441551,0.0976039469242096,-0.023518219590187073,0.08768643,57.043552,Clouds
134918.210,0.006154311820864677,0.0018652081489562988,0.019858181476593018,-0.013777485117316246,-0.03185238689184189,-0.012254578992724419,0.08107343,57.043552,Clouds
134918.240,-0.0036669005639851093,0.0020055174827575684,0.010403335094451904,-0.09372138977050781,-0.05061712861061096,0.00482013588771224,0.068181336,57.043552,Clouds
134918.270,-0.001888456754386425,-0.001835167407989502,-0.018046259880065918,-0.09967831522226334,-0.014268413186073303,-0.005530501250177622,0.062024403,57.043552,Clouds
134918.300,0.004134610295295715,0.005779743194580078,-0.027352631092071533,-0.011111683212220669,-0.02034676820039749,-0.005341541022062302,0.056844633,57.043552,Clouds
134918.329,0.01128549687564373,0.0010140538215637207,-0.032454609870910645,0.054823074489831924,-0.023768428713083267,0.03813295438885689,0.046241283,57.043552,Clouds
134918.359,-0.006308384705334902,-0.0014418363571166992,-0.014224350452423096,0.09228120744228363,0.08686118572950363,0.020076556131243706,0.041780107,57.043552,Clouds
134918.389,-0.002713623456656933,-0.007833123207092285,0.006538808345794678,0.05805420130491257,0.11641225963830948,-0.04671914875507355,0.034421124,57.043552,Clouds
134918.419,-0.0006367256864905357,0.0046141743659973145,0.029859423637390137,-0.04246257618069649,0.014397919178009033,-0.03340815380215645,0.031987485,57.043552,Clouds
134918.449,-0.00034498516470193863,0.009880900382995605,0.021118879318237305,-0.05750453099608421,-0.012856081128120422,-0.004992537200450897,0.03130585,57.043552,Clouds
134918.479,0.0033966712653636932,0.003305971622467041,-0.006633102893829346,-0.02835298702120781,-0.03038129210472107,0.012457429431378841,0.047930606,57.043552,Clouds
134918.509,-0.0003559114411473274,-0.0006387233734130859,-0.028475403785705566,0.005158277228474617,-0.017215190455317497,0.014124514535069466,0.04787767,57.043552,Clouds
134918.538,0.0030720019713044167,-0.006172657012939453,-0.036844849586486816,0.047485582530498505,0.056954678148031235,-0.014334769919514656,0.046617355,57.043552,Clouds
134918.568,0.007443550042808056,0.0020551085472106934,-0.013814806938171387,0.07745445519685745,0.08885334432125092,-0.018078092485666275,0.04613808,57.043552,Clouds
134918.598,-0.001974785700440407,0.00292813777923584,0.0005218982696533203,0.07228487730026245,0.029001707211136818,-0.0014572149375453591,0.05232164,57.043552,Clouds
134918.628,-0.00549804512411356,0.0026181936264038086,0.012501001358032227,0.08084888011217117,0.057665832340717316,-0.03922173008322716,0.055734858,57.043552,Clouds
134918.658,-0.007163479924201965,-0.008922755718231201,-0.011584877967834473,0.042559053748846054,0.06669184565544128,-0.04981737583875656,0.052804425,57.043552,Clouds
134918.688,-0.010860400274395943,-0.0045092105865478516,-0.025908052921295166,0.09833904355764389,-0.014687661081552505,-0.04150107502937317,0.04791703,57.043552,Clouds
134918.717,0.00476720929145813,-0.013762354850769043,-0.0751379132270813,0.20121176540851593,-0.07164426892995834,-0.07467439770698547,0.046321217,57.043552,Clouds
134918.747,0.005865840241312981,-0.013721644878387451,-0.13282418251037598,0.2927336096763611,0.034223854541778564,-0.106218121945858,0.043499246,57.043552,Clouds
134918.777,-0.00046614184975624084,0.0026264190673828125,-0.10696309804916382,0.5765858888626099,0.3659842312335968,-0.1472637802362442,0.039359093,57.043552,Clouds
134918.807,0.019466765224933624,0.02071070671081543,-0.04103744029998779,0.6895225048065186,0.5584397912025452,-0.1200113296508789,0.03702776,57.043552,Clouds
134918.837,0.017987798899412155,0.030784785747528076,0.007441222667694092,0.47686299681663513,0.43716880679130554,-0.01646464690566063,0.032627642,57.043552,Clouds
134918.866,0.016044922173023224,0.04203963279724121,0.022351086139678955,0.5899835228919983,0.27451303601264954,0.057415470480918884,0.03061937,57.043552,Clouds
134918.896,0.01486378163099289,0.037800729274749756,0.028522014617919922,0.8614338040351868,0.35308194160461426,0.06101706624031067,0.028546153,57.043552,Clouds
134918.926,0.021808944642543793,0.025892794132232666,0.024596750736236572,0.6518997550010681,0.23484794795513153,0.18507921695709229,0.0255354,57.043552,Clouds
134918.956,0.009130097925662994,0.019523203372955322,0.0250169038772583,0.3804164230823517,0.1313154548406601,0.2831914722919464,0.024549892,57.043552,Clouds
134918.986,0.0025077611207962036,0.009254693984985352,0.016917049884796143,0.1030806228518486,0.0730113834142685,0.30104365944862366,0.022100559,57.043552,Clouds
134919.015,0.007812600582838058,0.004596292972564697,0.03398531675338745,0.09099303930997849,0.023747732862830162,0.2465198040008545,0.02071402,57.043552,Clouds
134919.045,-0.007201638072729111,0.012363314628601074,0.04456198215484619,0.21494987607002258,0.08205320686101913,0.2064507007598877,0.019511348,57.043552,Clouds
134919.074,-0.021663151681423187,0.013659119606018066,0.0642511248588562,0.14883704483509064,0.10094449669122696,0.24141249060630798,0.017436393,57.043552,Clouds
134919.104,-0.022244099527597427,0.0034911036491394043,0.0739508867263794,0.0026841165963560343,-0.04077909141778946,0.26402339339256287,0.019245181,57.043552,Clouds
134919.135,-0.02262330800294876,-0.008678257465362549,0.06149786710739136,-0.08360140770673752,-0.16543765366077423,0.22517016530036926,0.01817605,57.043552,Clouds
134919.165,-0.02419443428516388,-0.024228692054748535,0.013187766075134277,-0.14735566079616547,-0.15825866162776947,0.11604620516300201,0.017598728,57.043552,Clouds
134919.194,-0.029945846647024155,-0.021086394786834717,-0.015485763549804688,-0.14188840985298157,-0.04084262251853943,-0.0012444283347576857,0.016347345,57.043552,Clouds
134919.224,-0.01714356057345867,-0.016776561737060547,-0.009073257446289062,-0.11983215808868408,0.01822580397129059,-0.05914972350001335,0.014270473,57.043552,Clouds
134919.254,-0.00406605564057827,-0.00312960147857666,0.0063800811767578125,-0.002844410017132759,0.0068137808702886105,-0.09174327552318573,0.016754968,57.043552,Clouds
134919.284,-0.010339008644223213,0.006997883319854736,0.02324843406677246,0.0064595225267112255,0.024146709591150284,-0.07573121041059494,0.071821004,57.043552,Clouds
134919.314,-0.00494375079870224,0.007606983184814453,0.03201943635940552,-0.08345957100391388,-0.03204497694969177,-0.02372889406979084,0.068117134,57.043552,Clouds
134919.343,0.005075480788946152,0.002724587917327881,0.02504754066467285,-0.12482112646102905,-0.17676807940006256,-0.01747312769293785,0.06458644,57.043552,Clouds
134919.374,-0.0021554939448833466,-0.0036734938621520996,-0.011544883251190186,-0.1029948964715004,-0.15128426253795624,-0.06439376622438431,0.055014655,57.043552,Clouds
134919.403,-0.00023605674505233765,-0.007602512836456299,-0.03648531436920166,-0.14036278426647186,-0.09332054853439331,-0.0814044401049614,0.05021701,57.043552,Clouds
134919.433,0.008773049339652061,-0.0029901862144470215,-0.031301021575927734,-0.0883474051952362,-0.06047970801591873,-0.09373867511749268,0.042912833,57.043552,Clouds
134919.463,0.0008898172527551651,-0.004712879657745361,-0.03552591800689697,-0.039894841611385345,-0.04005678743124008,-0.10705485194921494,0.03917503,57.043552,Clouds
134919.493,-0.0014237798750400543,0.006006836891174316,0.001368701457977295,0.05495647341012955,0.04551881179213524,-0.16798390448093414,0.035653945,57.043552,Clouds
134919.523,-0.002454496920108795,0.009534299373626709,0.025953292846679688,0.010318849235773087,0.038636915385723114,-0.17865802347660065,0.030316709,57.043552,Clouds
134919.552,0.004469528794288635,0.009810864925384521,0.01818835735321045,-0.07520294189453125,-0.022367019206285477,-0.13877665996551514,0.028161004,57.043552,Clouds
134919.582,-0.003947176039218903,0.001288294792175293,0.0036753416061401367,-0.09363067895174026,-0.11820641905069351,-0.10604573041200638,0.024371067,57.043552,Clouds
134919.612,0.002730671316385269,-0.006151437759399414,-0.01903468370437622,-0.08533895015716553,-0.12021134048700333,-0.1462048888206482,0.023212152,57.043552,Clouds
134919.642,0.0069527700543403625,-0.0133095383644104,-0.040437281131744385,-0.05894175171852112,-0.14983144402503967,-0.1765672117471695,0.022173464,57.043552,Clouds
134919.672,0.001391284167766571,-0.004160702228546143,-0.052751779556274414,-0.03916908800601959,-0.0258412454277277,-0.16720207035541534,0.02108994,57.043552,Clouds
134919.702,-0.002070493996143341,0.009937167167663574,-0.02065908908843994,0.010876627638936043,0.1522204875946045,-0.12107497453689575,0.029284494,57.043552,Clouds
134919.731,0.0046125128865242004,0.0140455961227417,0.010404586791992188,0.03293045610189438,0.14310400187969208,-0.10469725728034973,0.04033266,57.043552,Clouds
134919.761,0.011400163173675537,0.010286509990692139,0.02680051326751709,0.022048773244023323,0.038107242435216904,-0.11477544903755188,0.08848995,57.043552,Clouds
134919.791,0.0030083544552326202,0.010056495666503906,0.01550990343093872,-0.07586830854415894,0.009023903869092464,-0.02879493497312069,0.08486001,57.043552,Clouds
134919.821,0.005936160683631897,0.010833680629730225,-0.006161868572235107,-0.1489109992980957,0.0066132331266999245,0.043511927127838135,0.099730104,57.043552,Clouds
134919.851,0.0106658935546875,0.008975565433502197,-0.020143747329711914,-0.04258054122328758,-0.004318998660892248,0.0268073920160532,0.095610686,57.043552,Clouds
134919.880,0.006972476840019226,-0.00020927190780639648,-0.02793443202972412,0.006704971194267273,0.008757343515753746,0.034842539578676224,0.094369926,57.043552,Clouds
134919.910,0.008562557399272919,-0.003466665744781494,-0.015442073345184326,0.02806084416806698,0.06892050057649612,0.02477085217833519,0.094100624,57.043552,Clouds
134919.940,-0.003745090216398239,0.002771615982055664,0.007863163948059082,0.02161416783928871,0.06084565818309784,0.014799457043409348,0.089361444,57.043552,Clouds
134919.969,-0.007308486849069595,0.006159484386444092,0.023962974548339844,0.0009031477384269238,-0.020576421171426773,0.013168741017580032,0.07990581,57.043552,Clouds
134920.000,-0.010436329990625381,-0.0023037195205688477,0.004123866558074951,-0.01910204440355301,5.092671199236065e-05,-0.011532503180205822,0.07324183,57.043552,Clouds
134920.029,-0.006349802017211914,-0.009279310703277588,0.0006077885627746582,-0.0011350137647241354,-0.01230717170983553,-0.01565615087747574,0.0626394,57.043552,Clouds
134920.059,0.0027718432247638702,-0.004827618598937988,-0.01647961139678955,-0.015330728143453598,-0.09585133194923401,-0.00714761670678854,0.057309393,57.043552,Clouds
134920.089,-0.0014797374606132507,0.002819359302520752,-0.0322454571723938,0.03301576152443886,-0.03812011703848839,-0.010142989456653595,0.05258336,57.043552,Clouds
134920.118,0.003818284720182419,-0.004129886627197266,-0.028196632862091064,0.0429842434823513,0.04164687171578407,-0.008763623423874378,0.04808712,57.043552,Clouds
134920.149,0.00354621559381485,0.009462356567382812,0.006575226783752441,0.15552307665348053,0.0856945738196373,-0.027792949229478836,0.050069146,57.043552,Clouds
134920.179,0.00449775904417038,0.01196223497390747,0.02219569683074951,0.14719423651695251,0.09567806869745255,-0.05107126757502556,0.13793987,57.043552,Clouds
134920.209,0.00422784686088562,0.012936115264892578,0.050737619400024414,0.025478167459368706,0.06051946431398392,-0.06467045098543167,0.12563992,57.043552,Clouds
134920.238,0.003968857228755951,0.012701034545898438,0.0320623517036438,-0.06682026386260986,-0.08224626630544662,-0.024949904531240463,0.11456375,57.043552,Clouds
134920.268,0.010588563978672028,0.011632800102233887,0.01463174819946289,-0.11713989824056625,-0.14847055077552795,0.028850210830569267,0.09840909,57.043552,Clouds
134920.298,-0.0010529980063438416,0.0019113421440124512,-0.030057907104492188,-0.19285061955451965,-0.11236684024333954,0.09696762263774872,0.08858375,57.043552,Clouds
134920.328,-0.0009042359888553619,-0.0064882636070251465,-0.046705007553100586,-0.03802401199936867,-0.025695282965898514,0.05106339231133461,0.07754108,57.043552,Clouds
134920.358,0.0012520477175712585,-0.007487475872039795,-0.0305711030960083,0.14098404347896576,0.050325315445661545,-0.002518510213121772,0.07445057,57.043552,Clouds
134920.388,0.0026691854000091553,-0.0015752315521240234,-0.0034314990043640137,0.09539148211479187,0.04718483239412308,-0.002201621187850833,0.06857633,57.043552,Clouds
134920.417,-0.00045230984687805176,0.006910264492034912,0.015178322792053223,0.008437452837824821,0.031913019716739655,-0.006344141438603401,0.059316184,57.043552,Clouds
134920.447,0.0013771019876003265,0.009605765342712402,0.01498788595199585,-0.033716656267642975,0.025994200259447098,0.008237224072217941,0.054087136,57.043552,Clouds
134920.477,0.0030792243778705597,0.003907680511474609,0.017992138862609863,-0.030651062726974487,-0.050653405487537384,0.03426802158355713,0.045118988,57.043552,Clouds
134920.507,-0.0008435733616352081,-0.0019210577011108398,-0.016333818435668945,-0.075528085231781,-0.07268864661455154,0.03295105695724487,0.04181681,57.043552,Clouds
134920.537,0.0029078982770442963,0.0015677809715270996,-0.017305433750152588,-0.052447665482759476,-0.051752105355262756,0.023827379569411278,0.040038235,57.043552,Clouds
134920.566,0.007080215960741043,-0.0016214847564697266,-0.015641510486602783,0.07006894797086716,0.04791301488876343,-0.016093526035547256,0.036890037,57.043552,Clouds
134920.596,0.004780389368534088,0.006087541580200195,-0.0070847272872924805,0.06761860102415085,0.04273005574941635,0.011240381747484207,0.035437867,57.043552,Clouds
134920.626,-0.007179979234933853,0.011151552200317383,0.019514918327331543,0.039914436638355255,0.03368619829416275,0.01767132431268692,0.033272937,57.043552,Clouds
134920.656,-0.0017687976360321045,0.0048830509185791016,0.030254602432250977,-0.015032511204481125,0.01283908262848854,0.0012507927604019642,0.06022758,57.043552,Clouds
134920.686,-0.0025800801813602448,-0.002126038074493408,0.0175437331199646,-0.08116797357797623,-0.06442391127347946,0.014406059868633747,0.058534056,57.043552,Clouds
134920.716,-0.0063587985932827,-1.913309097290039e-05,-0.006354689598083496,-0.04912514239549637,-0.08795307576656342,-0.0052306633442640305,0.05559479,57.043552,Clouds
134920.746,-0.003593098372220993,-0.0026679039001464844,-0.03884446620941162,-0.06083349883556366,-0.032701924443244934,-0.025752993300557137,0.051551145,57.043552,Clouds
134920.775,0.007710706442594528,-0.006937146186828613,-0.03396749496459961,-0.009921909309923649,0.04234795644879341,0.0011157304979860783,0.049607337,57.043552,Clouds
134920.806,0.014410406351089478,0.008841872215270996,-0.00038999319076538086,0.09324488788843155,0.0068003651686012745,0.0055552017875015736,0.04491133,57.043552,Clouds
134920.835,-0.0023778900504112244,0.01095801591873169,0.009088635444641113,0.12658442556858063,0.013312728144228458,0.0003970175457652658,0.041677352,57.043552,Clouds
134920.865,-0.0018841512501239777,0.003179192543029785,0.012988567352294922,-0.022552475333213806,0.020201070234179497,-0.0018275771290063858,0.03572084,57.043552,Clouds
134920.894,-0.004336543381214142,0.0009046792984008789,0.026792705059051514,-0.05457806959748268,0.00737951323390007,-0.007030322682112455,0.03362602,57.043552,Clouds
134920.924,0.0045444555580616,0.0018587708473205566,0.008969306945800781,-0.028044287115335464,-0.08871772140264511,0.01611247844994068,0.031526342,57.043552,Clouds
134920.954,-0.0004036538302898407,0.004871726036071777,-0.023155570030212402,-0.05440528318285942,-0.10873714834451675,0.05583781376481056,0.09282197,57.043552,Clouds
134920.984,-0.0007817335426807404,-0.00485914945602417,-0.03614687919616699,-0.04010436311364174,0.041952040046453476,-0.008425464853644371,0.08921753,57.043552,Clouds
134921.014,0.010792385786771774,-0.0058615803718566895,-0.017935216426849365,0.016756273806095123,0.0860297679901123,-0.040303342044353485,0.07422332,57.043552,Clouds
134921.044,0.005013011395931244,0.009616851806640625,0.007921040058135986,0.04079355672001839,0.017502477392554283,-0.009638713672757149,0.06743273,57.043552,Clouds
134921.073,-0.006067641079425812,0.012457311153411865,0.021705806255340576,-0.006423342972993851,0.005193270742893219,0.02515474706888199,0.061276007,57.043552,Clouds
134921.103,-0.0048469193279743195,0.004253506660461426,0.03245282173156738,-0.006886822171509266,-0.011991865001618862,0.022610461339354515,0.056174245,57.043552,Clouds
134921.133,-0.0024214275181293488,-0.005165398120880127,0.01408243179321289,-0.07871221005916595,-0.049823153764009476,0.01697576604783535,0.06300236,57.043552,Clouds
134921.163,-0.0008237063884735107,-0.0023438334465026855,-0.012922108173370361,-0.16706135869026184,-0.06400060653686523,0.018936723470687866,0.057973,57.043552,Clouds
134921.193,-0.00410524383187294,-0.006391346454620361,-0.037355899810791016,-0.15453773736953735,-0.09039298444986343,0.02350425347685814,0.0540843,57.043552,Clouds
134921.223,0.009914323687553406,-0.0049324631690979,-0.03499877452850342,-0.01431640051305294,0.036556828767061234,-0.0316159762442112,0.052246235,57.043552,Clouds
134921.252,0.006684590131044388,0.0037680864334106445,-0.017040729522705078,0.07885190099477768,0.09577157348394394,-0.03576892614364624,0.05245589,57.043552,Clouds
134921.282,0.003778107464313507,0.013743460178375244,0.012410879135131836,0.028847936540842056,0.07039334625005722,-0.009928344748914242,0.049806688,57.043552,Clouds
134921.312,-0.0018985532224178314,0.0022755861282348633,0.016516923904418945,-0.14558802545070648,0.04083070158958435,-0.012431037612259388,0.043447983,57.043552,Clouds
134921.342,-0.0007286965847015381,0.003469526767730713,0.024715304374694824,-0.13651727139949799,0.03042718768119812,0.012909484095871449,0.040916033,57.043552,Clouds
134921.372,0.0045193396508693695,0.0012354850769042969,0.006912827491760254,-0.05738355219364166,-0.09560872614383698,0.04615360125899315,0.039441243,57.043552,Clouds
134921.402,-0.005200512707233429,0.0044057369232177734,-0.024472951889038086,-0.08626372367143631,-0.05813609063625336,0.0451694056391716,0.036344316,57.043552,Clouds
134921.431,0.0006166808307170868,0.0007305741310119629,-0.028705239295959473,-0.01925443485379219,0.057506054639816284,0.013605029322206974,0.03564863,57.043552,Clouds
134921.461,0.011275909841060638,-0.004715383052825928,-0.010133981704711914,0.019584380090236664,0.04662219062447548,-0.0019941336940973997,0.040271748,57.043552,Clouds
134921.491,0.0013389624655246735,0.007578730583190918,0.007709085941314697,0.045619040727615356,0.034427233040332794,-0.014905084855854511,0.03877389,57.043552,Clouds
134921.521,-0.008499085903167725,0.00796663761138916,0.02409672737121582,-0.0001854731235653162,0.06358584016561508,-0.0070227873511612415,0.03739587,57.043552,Clouds
134921.551,0.00027537718415260315,0.0052381157875061035,0.03594475984573364,-0.09531699120998383,-0.007006403990089893,0.021692370995879173,0.045052394,57.043552,Clouds
134921.580,-0.002257212996482849,0.0007113814353942871,0.016000807285308838,-0.08694584667682648,-0.08276552706956863,0.03218498453497887,0.04394042,57.043552,Clouds
134921.610,-0.004179216921329498,-0.0019183158874511719,-0.022670090198516846,-0.07623594254255295,-0.067973792552948,0.026957465335726738,0.06962628,57.043552,Clouds
134921.640,-0.006429258733987808,-0.0064934492111206055,-0.036568641662597656,-0.09500870108604431,-0.015916530042886734,0.01590966433286667,0.06655368,57.043552,Clouds
134921.670,0.010467588901519775,-0.006740093231201172,-0.02660083770751953,-0.07066326588392258,0.0243879035115242,0.004759881645441055,0.0618404,57.043552,Clouds
134921.700,0.007033158093690872,0.001759171485900879,-0.003024280071258545,-0.03721139207482338,0.04925784468650818,-0.014611071906983852,0.054488473,57.043552,Clouds
134921.730,-0.00222126767039299,0.01130223274230957,0.014440596103668213,-0.05607355013489723,0.0880509614944458,-0.010832345113158226,0.0516274,57.043552,Clouds
134921.759,0.00508301705121994,0.016919195652008057,0.030253469944000244,-0.03848842531442642,0.048292018473148346,0.004194685257971287,0.047342014,57.043552,Clouds
134921.790,0.0011500641703605652,0.0018202662467956543,0.013477921485900879,-0.16174903512001038,0.0002565252943895757,0.02792641706764698,0.04561132,57.043552,Clouds
134921.819,0.010388467460870743,0.002976655960083008,0.0028220415115356445,-0.324014812707901,-0.012123643420636654,0.0691564530134201,0.042092964,57.043552,Clouds
134921.849,0.00414092093706131,0.0033637285232543945,-0.010923564434051514,-0.3143796920776367,-0.0329861044883728,0.09776683151721954,0.0368257,57.043552,Clouds
134921.879,0.006032191216945648,-0.00594484806060791,-0.028987407684326172,-0.2805372178554535,-0.030505914241075516,0.08522246032953262,0.033927962,57.043552,Clouds
134921.909,-0.003101542592048645,-0.005078136920928955,-0.021624445915222168,-0.23572902381420135,0.03519783914089203,0.038123928010463715,0.030233549,57.043552,Clouds
134921.939,0.0009387731552124023,0.005563974380493164,0.008177518844604492,0.05154222622513771,0.06661543250083923,-0.023789769038558006,0.029460587,57.043552,Clouds
134921.968,-0.012784209102392197,0.0018769502639770508,0.023741602897644043,0.1211676374077797,-0.044465627521276474,0.03366034850478172,0.028154086,57.043552,Clouds
134921.998,-0.016134005039930344,-0.009823501110076904,0.011107087135314941,-0.059474751353263855,-0.04453568160533905,0.06039973720908165,0.025939474,57.043552,Clouds
134922.028,-0.004192091524600983,-0.01576930284500122,0.00951606035232544,-0.09364673495292664,-0.063624806702137,-0.012933695688843727,0.024733217,57.043552,Clouds
134922.058,-0.001099567860364914,-0.005934417247772217,-0.01419377326965332,-0.09623656421899796,-0.09407760947942734,-0.01719948835670948,0.15037964,57.043552,Clouds
134922.087,-0.010271340608596802,0.004189133644104004,-0.03337991237640381,-0.05867745727300644,-0.05595947802066803,0.012320999056100845,0.15825805,57.043552,Clouds
134922.117,0.007947131991386414,-0.00485837459564209,-0.03183460235595703,0.0730333924293518,0.01197098009288311,-0.022092647850513458,0.1429019,57.043552,Clouds
134922.147,0.0046666525304317474,-0.002207815647125244,-0.015263378620147705,0.0782085433602333,0.04459179565310478,-0.0601639598608017,0.12174416,57.043552,Clouds
134922.177,0.0014035925269126892,0.01036679744720459,0.011519908905029297,-0.01080041378736496,0.060092274099588394,-0.05784262344241142,0.11430362,57.043552,Clouds
134922.206,0.0050919800996780396,0.015920937061309814,0.026027560234069824,0.0017552762292325497,0.026950214058160782,-0.020581303164362907,0.114719234,57.043552,Clouds
134922.236,0.007115986198186874,0.005305171012878418,0.01872885227203369,-0.0038244358729571104,-0.04178643226623535,0.021415097638964653,0.107909404,57.043552,Clouds
134922.266,0.007010959088802338,0.0038190484046936035,-0.0077138543128967285,0.001691748620942235,-0.0819844976067543,0.012354610487818718,0.10596841,57.043552,Clouds
134922.296,0.0012931376695632935,0.0018115639686584473,-0.03794419765472412,-0.018701020628213882,-0.036996666342020035,0.021678529679775238,0.12915228,57.043552,Clouds
134922.326,0.00970425084233284,-0.001879870891571045,-0.03997617959976196,-0.019750427454710007,0.04171960428357124,0.004087626002728939,0.12180209,57.043552,Clouds
134922.356,0.0016953088343143463,0.004627227783203125,-0.006906330585479736,0.07306251674890518,0.09391646832227707,-0.016178661957383156,0.10498335,57.043552,Clouds
134922.386,0.00028751790523529053,0.009478747844696045,0.0228307843208313,0.19411303102970123,0.0647958442568779,-0.03304862231016159,0.10086234,57.043552,Clouds
134922.416,-0.008702415972948074,0.007070004940032959,0.03634822368621826,0.15887951850891113,0.015358079224824905,-0.007335057016462088,0.3226421,57.043552,Clouds
134922.446,0.00044694915413856506,-0.0007762312889099121,0.021017789840698242,0.008186396211385727,-0.07257520407438278,0.02212826907634735,0.27556238,57.043552,Clouds
134922.476,-0.006576873362064362,-0.003002762794494629,0.002139151096343994,-0.07171695679426193,-0.029825687408447266,0.002407437888905406,0.250786,57.043552,Clouds
134922.505,-0.0017553456127643585,-0.000988304615020752,-0.025995075702667236,-0.043751101940870285,-0.03701081499457359,-0.0010564133990556002,0.21468607,57.043552,Clouds
134922.535,0.006223846226930618,-0.005099475383758545,-0.04180455207824707,0.10090947151184082,-0.004937808495014906,-0.0343598872423172,0.20638092,57.043552,Clouds
134922.565,0.005834314972162247,-0.0035312771797180176,-0.030425429344177246,0.17961031198501587,0.08046074956655502,-0.032089028507471085,0.19374633,57.043552,Clouds
134922.595,0.0021462664008140564,0.010934710502624512,0.013457059860229492,0.15686605870723724,0.10833539068698883,-0.02070525847375393,0.16719082,57.043552,Clouds
134922.625,0.0036514103412628174,0.014895796775817871,0.04016488790512085,0.08092638105154037,0.01925850100815296,-0.02776564471423626,0.18643612,57.043552,Clouds
134922.654,-0.003567814826965332,0.005782902240753174,0.0298614501953125,-0.005907594226300716,-0.025163104757666588,0.002351915230974555,0.21903674,57.043552,Clouds
134922.684,-0.0019397474825382233,0.005759775638580322,0.026829838752746582,0.030207352712750435,-0.02927420288324356,0.025685632601380348,0.21081634,57.043552,Clouds
134922.714,0.00955960899591446,0.0018764138221740723,-0.004456043243408203,0.03032916784286499,-0.1063535064458847,0.004091455601155758,0.20259182,57.043552,Clouds
134922.744,-0.0005423501133918762,-0.00027877092361450195,-0.04007929563522339,-0.03173026815056801,-0.10403162986040115,0.04113824665546417,0.19333394,57.043552,Clouds
134922.774,-0.0006331056356430054,-0.004258990287780762,-0.04376429319381714,0.04089093208312988,0.04783414676785469,0.025887243449687958,0.18455966,57.043552,Clouds
134922.803,0.007881514728069305,-0.004612743854522705,-0.005658328533172607,0.1450406163930893,0.059787653386592865,-0.003948617726564407,0.15724806,57.043552,Clouds
134922.833,-0.007864531129598618,0.008130311965942383,0.01972264051437378,0.2030455470085144,0.04038187116384506,-0.018103063106536865,0.14201535,57.043552,Clouds
134922.863,-0.013376429677009583,0.004133343696594238,0.02430272102355957,0.10880396515130997,0.02769475057721138,-0.006303422152996063,0.13040626,57.043552,Clouds
134922.893,0.000684879720211029,0.0012938976287841797,0.033296048641204834,0.07266966253519058,-0.04871746525168419,0.023120779544115067,0.16060524,57.043552,Clouds
134922.923,0.00042681023478507996,0.00023788213729858398,0.007539510726928711,0.2276841253042221,-0.23123328387737274,0.05706574767827988,0.16007417,57.043552,Clouds
134922.953,0.004151280969381332,0.006333470344543457,-0.04677307605743408,0.3833581507205963,-0.1630774885416031,0.03601067140698433,0.1502311,57.043552,Clouds
134922.982,0.00021259859204292297,-0.013169705867767334,-0.07027095556259155,0.14359627664089203,0.05312336981296539,0.001335441367700696,0.14135537,57.043552,Clouds
134923.012,0.013475067913532257,-0.008483350276947021,-0.023819327354431152,0.03352656215429306,0.17346030473709106,-0.04357220232486725,0.12980804,57.043552,Clouds
134923.042,0.01653650403022766,0.014754533767700195,0.017747581005096436,0.13538266718387604,0.10690716654062271,-0.052549317479133606,0.11460745,57.043552,Clouds
134923.072,-0.007192980498075485,0.0217897891998291,0.03729754686355591,0.08999078720808029,0.05575847998261452,0.044689539819955826,0.13014978,57.043552,Clouds
134923.102,-0.008543118834495544,0.00821596384048462,0.03952968120574951,0.03101210668683052,-0.0059480080381035805,0.07901608198881149,0.118750595,57.043552,Clouds
134923.132,-0.006868228316307068,-0.00874638557434082,0.02418142557144165,-0.0724339410662651,-0.051192473620176315,0.049729395657777786,0.13680558,57.043552,Clouds
134923.161,-0.00798291340470314,-0.009304523468017578,0.0006154179573059082,-0.117896169424057,-0.066451795399189,-0.010729547590017319,0.12783119,57.043552,Clouds
134923.191,-0.0007256343960762024,-0.005448043346405029,-0.03312176465988159,-0.06915189325809479,-0.07262427359819412,-0.04116126522421837,0.11233058,57.043552,Clouds
134923.221,0.005374681204557419,-0.004663407802581787,-0.043482065200805664,-0.013586517423391342,0.001439620740711689,-0.01753578707575798,0.10673031,57.043552,Clouds
134923.251,0.0006510503590106964,0.01043468713760376,-0.01182776689529419,0.10474477708339691,0.09638030081987381,-0.018075644969940186,0.104275696,57.043552,Clouds
134923.281,0.006894394755363464,0.012932419776916504,0.015702128410339355,0.21147650480270386,0.08664152771234512,-0.025851476937532425,0.098578304,57.043552,Clouds
134923.311,0.0021891258656978607,0.010990738868713379,0.02906179428100586,0.05973296985030174,0.01599865034222603,0.03196001052856445,0.1323427,57.043552,Clouds
134923.340,-0.0033987760543823242,0.0014038681983947754,0.02462184429168701,-0.08409572392702103,-0.031066812574863434,0.03414277732372284,0.12792893,57.043552,Clouds
134923.370,0.0011893324553966522,-0.005053043365478516,0.003227829933166504,-0.13175784051418304,-0.07843288034200668,0.0013524533715099096,0.1270696,57.043552,Clouds
134923.400,0.0005845129489898682,-0.0005527734756469727,-0.022559404373168945,-0.1087004691362381,-0.08596296608448029,-0.015180716291069984,0.1263552,57.043552,Clouds
134923.430,-0.002688571810722351,-0.0012073516845703125,-0.03929495811462402,-0.016779311001300812,-0.011692501604557037,0.020207392051815987,0.12417746,57.043552,Clouds
134923.460,0.008987829089164734,0.0010458827018737793,-0.020569920539855957,0.05564644932746887,0.08170600980520248,0.0012883034069091082,0.12250652,57.043552,Clouds
134923.490,0.000608392059803009,0.007760465145111084,0.01593071222305298,0.10432764887809753,0.09800545126199722,-0.054961010813713074,0.12175526,57.043552,Clouds
134923.520,-0.00454055517911911,0.009885907173156738,0.04002094268798828,0.006274613086134195,0.02007243223488331,-0.01104867272078991,0.1329991,57.043552,Clouds
134923.549,-0.0062621235847473145,0.0062909722328186035,0.03470027446746826,-0.06288206577301025,-0.049151256680488586,0.011938406154513359,0.12140931,57.043552,Clouds
134923.579,0.00014414265751838684,-0.004223823547363281,0.0012683868408203125,-0.07423294335603714,-0.09638472646474838,0.00351965450681746,0.12116119,57.043552,Clouds
134923.609,-0.0030666664242744446,-0.006378293037414551,-0.03600198030471802,-0.107660673558712,-0.08678669482469559,-0.014195160940289497,0.11231624,57.043552,Clouds
134923.639,0.00636768713593483,-0.003058314323425293,-0.04696112871170044,-0.06651148200035095,-0.02121475711464882,-0.019598355516791344,0.100347035,57.043552,Clouds
134923.669,0.008239950984716415,0.0006222128868103027,-0.0337451696395874,0.041412290185689926,0.0919848307967186,-0.021764090284705162,0.09630337,57.043552,Clouds
134923.698,0.008364014327526093,0.01021045446395874,0.008506834506988525,0.13676317036151886,0.11595172435045242,-0.01608322374522686,0.13128822,57.043552,Clouds
134923.728,-0.0007466189563274384,0.010325253009796143,0.02960503101348877,0.07369972765445709,-0.01702146790921688,0.028911644592881203,0.121920854,57.043552,Clouds
134923.758,-0.00536390021443367,0.0023610591888427734,0.02272099256515503,-0.03847383335232735,-0.049318574368953705,0.033789679408073425,0.11503058,57.043552,Clouds
134923.788,-0.01062750443816185,-0.0009400248527526855,0.022612690925598145,-0.06616702675819397,0.05193523317575455,-0.010076848790049553,0.13905,57.043552,Clouds
134923.818,0.002448383718729019,-0.002216041088104248,0.004539430141448975,-0.08596767485141754,-0.060645993798971176,-0.017198974266648293,0.15416582,57.043552,Clouds
134923.848,-0.0024659261107444763,0.001926720142364502,-0.029956459999084473,-0.0697990208864212,-0.11129306256771088,-0.0005811985465697944,0.16445892,57.043552,Clouds
134923.877,0.00461047887802124,-0.005312144756317139,-0.04469424486160278,0.016198650002479553,0.01617247983813286,-0.019119644537568092,0.14419484,57.043552,Clouds
134923.907,0.012323010712862015,-4.6253204345703125e-05,-0.01939547061920166,0.09350146353244781,0.08036447316408157,-0.02341555617749691,0.13032559,57.043552,Clouds
134923.937,0.0013142302632331848,0.0126800537109375,0.013721764087677002,0.11965779960155487,0.052869461476802826,-0.007752521894872189,0.110068984,57.043552,Clouds
134923.967,-0.0041779205203056335,0.009617269039154053,0.02966254949569702,-0.016689419746398926,0.004515012726187706,0.022675663232803345,0.10060208,57.043552,Clouds
134923.997,-0.0037647299468517303,-0.0013515949249267578,0.033455610275268555,-0.11131642013788223,-0.020891159772872925,0.0155917564406991,0.09564662,57.043552,Clouds
134924.026,-0.005315952003002167,0.0035199522972106934,0.01953756809234619,-0.1122627705335617,-0.07482065260410309,0.03283178061246872,0.08261408,57.043552,Clouds
134924.056,0.0007252432405948639,0.00509798526763916,0.0003917217254638672,-0.09768984466791153,-0.1634352207183838,0.0464995801448822,0.075788386,57.043552,Clouds
134924.086,-0.001943591982126236,-0.012279808521270752,-0.044754862785339355,-0.09648965299129486,-0.10225269943475723,-0.01568170264363289,0.064425096,57.043552,Clouds
134924.116,0.00397646427154541,-0.010252892971038818,-0.03647881746292114,-0.033707790076732635,0.08360587805509567,-0.08643682301044464,0.060322,57.043552,Clouds
134924.146,0.008802086114883423,0.01074153184890747,6.759166717529297e-05,0.06954504549503326,0.06990288943052292,-0.04591580107808113,0.056150794,57.043552,Clouds
134924.175,-0.003275010734796524,0.01543569564819336,0.011466443538665771,0.06613949686288834,-0.001562989898957312,0.01136726513504982,0.049262136,57.043552,Clouds
134924.205,0.00035144388675689697,0.0022251009941101074,0.020381927490234375,-0.048836804926395416,-0.002292812569066882,0.02079528197646141,0.04786391,57.043552,Clouds