Timestamp,AccelX,AccelY,AccelZ,GyroX,GyroY,GyroZ,AudioLevel,LightLevel,Weather
135108.174,0.004777812398970127,-0.015715360641479492,-0.003418445587158203,-0.01357869803905487,-0.5466460585594177,0.09835842251777649,0.28675106,57.043552,Clouds
135108.204,0.002478448674082756,0.005731403827667236,0.007232308387756348,-0.18110311031341553,0.19144965708255768,-0.21319474279880524,0.26093185,57.043552,Clouds
135108.234,0.006529230624437332,0.02829796075820923,0.03395897150039673,-0.3351495862007141,0.41134199500083923,-0.214421346783638,0.20968123,57.043552,Clouds
135108.264,0.008129280060529709,0.0019721388816833496,0.02927255630493164,-0.35489222407341003,0.04950179532170296,-0.09337831288576126,0.19040784,57.043552,Clouds
135108.294,0.0014262925833463669,0.0061373114585876465,0.019788682460784912,-0.095927394926548,-0.01058297697454691,-0.10985167324542999,0.17024262,57.043552,Clouds
135108.323,0.013264693319797516,0.012185156345367432,0.016405045986175537,0.06298515945672989,-0.04569749906659126,-0.10287691652774811,0.13779786,57.043552,Clouds
135108.353,0.01059182733297348,0.016203105449676514,0.005998492240905762,0.05709749460220337,-0.11206509917974472,0.019384045153856277,0.124163724,57.043552,Clouds
135108.385,0.03497971221804619,-0.004271268844604492,-0.031124532222747803,-0.14558525383472443,-0.16906994581222534,-0.011331640183925629,0.11160445,57.043552,Clouds
135108.413,0.030284617096185684,0.002041459083557129,-0.030755579471588135,-0.10466979444026947,-0.07662245631217957,-0.04040948301553726,0.10085989,57.043552,Clouds
135108.443,-0.0068346355110406876,0.006490767002105713,-0.024191677570343018,0.049266520887613297,0.08565422147512436,-0.031893640756607056,0.09060683,57.043552,Clouds
135108.473,0.005493108183145523,-0.009222567081451416,-0.017771363258361816,0.20902904868125916,0.007074686698615551,-0.005579983815550804,0.075023636,57.043552,Clouds
135108.503,0.020156020298600197,0.002907276153564453,-0.00253981351852417,0.16598588228225708,-0.07807517796754837,-0.05095056816935539,0.06790778,57.043552,Clouds
135108.533,0.0011009536683559418,0.01769798994064331,-0.0009188652038574219,-0.013374131172895432,0.10460468381643295,-0.042509473860263824,0.05795011,57.043552,Clouds
135108.562,0.0022383667528629303,0.0064424872398376465,0.004533886909484863,-0.1927514523267746,0.14674538373947144,-0.02354874648153782,0.053035997,57.043552,Clouds
135108.592,0.0066291578114032745,0.0008504390716552734,0.023363947868347168,-0.1486387848854065,-0.06226527318358421,-0.021770911291241646,0.048781704,57.043552,Clouds
135108.622,0.007308069616556168,0.0005413293838500977,0.0014799833297729492,-0.004648259840905666,-0.1713823527097702,-0.03907542675733566,0.04237118,57.043552,Clouds
135108.652,0.0035289712250232697,0.002125680446624756,-0.0029422640800476074,0.026046056300401688,0.007846316322684288,-0.043168459087610245,0.038951788,57.043552,Clouds
135108.682,-0.0026817433536052704,-0.0007817745208740234,0.0009464025497436523,-0.041370343416929245,0.04970521107316017,-0.0022121192887425423,0.03323086,57.043552,Clouds
135108.711,-0.00517689436674118,-0.013820111751556396,-0.005179643630981445,-0.09430117905139923,-0.02354118786752224,-0.03230196237564087,0.030429695,57.043552,Clouds
135108.741,-0.01212669163942337,-0.009587883949279785,0.006916165351867676,-0.018918754532933235,0.02042442560195923,-0.16226129233837128,0.027548755,57.043552,Clouds
135108.771,-0.001657981425523758,0.003960549831390381,0.0169602632522583,0.03667242452502251,-0.059835221618413925,-0.15107128024101257,0.023845784,57.043552,Clouds
135108.801,0.006934035569429398,0.004033446311950684,-0.004213511943817139,-0.03587265685200691,-0.18883001804351807,-0.06042012199759483,0.021846935,57.043552,Clouds
135108.831,0.0023917295038700104,0.003667473793029785,-0.02502751350402832,-0.08130970597267151,-0.06514539569616318,0.01490232814103365,0.018596945,57.043552,Clouds
135108.861,-0.007855497300624847,0.01486515998840332,-0.0095289945602417,0.011281969025731087,0.1731625497341156,-0.02833918109536171,0.017573664,57.043552,Clouds
135108.891,0.004236407577991486,-0.0018648505210876465,-0.005604386329650879,0.10395112633705139,0.04191572591662407,-0.027288448065519333,0.016705116,57.043552,Clouds
135108.920,0.017091315239667892,0.0004901289939880371,-0.006525635719299316,0.05382879450917244,-0.15866471827030182,-0.03479974344372749,0.015062125,57.043552,Clouds
135108.950,0.01732442155480385,0.006998658180236816,-0.0037603378295898438,-0.013615312986075878,-0.0700213611125946,-0.06177061051130295,0.017234288,57.043552,Clouds
135108.980,-0.0011134669184684753,0.011166930198669434,-0.009470582008361816,-0.06500669568777084,0.05239474028348923,-0.054965078830718994,0.016316958,57.043552,Clouds
135109.010,0.012830786406993866,0.0051247477531433105,0.0032916665077209473,0.06913895159959793,-0.00042390808812342584,-0.035287339240312576,0.015537626,57.043552,Clouds
135109.040,0.02046474814414978,0.0018496513366699219,-0.00499647855758667,0.11549877375364304,-0.08132945001125336,0.016960982233285904,0.014767209,57.043552,Clouds
135109.069,0.00037187710404396057,0.0068364739418029785,-0.009569883346557617,0.04479187726974487,0.09980013966560364,-0.0014742156490683556,0.014026772,57.043552,Clouds
135109.099,-0.006168033927679062,0.0010913610458374023,0.003566265106201172,-0.09854257106781006,0.039033278822898865,-0.05526056885719299,0.013411697,57.043552,Clouds
135109.129,-0.003494296222925186,0.0034596920013427734,0.0011093616485595703,-0.06045721843838692,-0.13737758994102478,-0.09466882050037384,0.051285665,57.043552,Clouds
135109.159,-0.004920545965433121,-0.0077593326568603516,-0.013569235801696777,0.03923289105296135,-0.04172946885228157,-0.03691325709223747,0.050658803,57.043552,Clouds
135109.189,0.005184639245271683,-0.0037155747413635254,0.0047692060470581055,0.06314519047737122,0.09741225093603134,0.001763475826010108,0.06366881,57.043552,Clouds
135109.219,0.005614824593067169,-5.9664249420166016e-05,0.023089170455932617,-0.02270647883415222,0.015985507518053055,-0.03752661123871803,0.15858296,57.043552,Clouds
135109.248,0.003477722406387329,0.014446496963500977,0.018000364303588867,-0.12235616892576218,-0.09966744482517242,-0.10476891696453094,0.15400517,57.043552,Clouds
135109.278,0.020023316144943237,0.018687963485717773,0.004204094409942627,-0.09548064321279526,-0.0829886719584465,-0.10117808729410172,0.13177928,57.043552,Clouds
135109.308,0.02364003285765648,0.010615408420562744,-0.010165929794311523,-0.03815280646085739,0.02165553718805313,-0.04028525948524475,0.12232772,57.043552,Clouds
135109.338,0.023506373167037964,0.009363353252410889,-0.010231435298919678,0.023205066099762917,-0.027445217594504356,0.005005809478461742,0.11268131,57.043552,Clouds
135109.368,0.025273077189922333,0.007890045642852783,-0.01905536651611328,0.04111393913626671,-0.09546472132205963,0.04482429474592209,0.09405634,57.043552,Clouds
135109.397,0.015737731009721756,0.000572502613067627,-0.029103517532348633,0.022012030705809593,0.01427945215255022,0.013480939902365208,0.08487797,57.043552,Clouds
135109.427,0.000306885689496994,0.010072648525238037,-0.014335095882415771,0.008244490250945091,0.11536763608455658,-0.03053809329867363,0.076852925,57.043552,Clouds
135109.457,0.007329467684030533,0.006312251091003418,0.0048789381980896,0.0922047421336174,0.035395827144384384,0.027106057852506638,0.06381893,57.043552,Clouds
135109.487,0.009752307087182999,-0.00023752450942993164,-0.001582026481628418,0.07010580599308014,-0.05474446341395378,0.04251883551478386,0.057984017,57.043552,Clouds
135109.517,-0.013218548148870468,0.0061476826667785645,-0.0025815367698669434,-0.03897871822118759,0.04199700802564621,-0.03288434073328972,0.04937997,57.043552,Clouds
135109.547,0.0053159259259700775,0.0018509626388549805,0.01074749231338501,0.018449777737259865,0.023005343973636627,-0.022626224905252457,0.045145076,57.043552,Clouds
135109.576,-0.002424944192171097,0.0052078962326049805,-0.004042506217956543,0.04608377814292908,-0.015397821553051472,0.04354279488325119,0.04126974,57.043552,Clouds
135109.606,-0.009599290788173676,0.001123666763305664,0.006120741367340088,0.01969670131802559,0.034357406198978424,0.05942967161536217,0.03503605,57.043552,Clouds
135109.636,-0.004518482834100723,-0.009943485260009766,-0.005032062530517578,-0.030477501451969147,-0.00411503529176116,-0.020022664219141006,0.03242784,57.043552,Clouds
135109.666,0.0014118067920207977,0.000765383243560791,0.0004901885986328125,-0.03796030580997467,0.017391379922628403,-0.07538212090730667,0.02729305,57.043552,Clouds
135109.696,0.0007886029779911041,0.009456813335418701,0.006370425224304199,-0.05623259395360947,-0.04788273572921753,0.02263558842241764,0.024889333,57.043552,Clouds
135109.726,0.010228604078292847,-3.635883331298828e-06,0.004911661148071289,-0.06270070374011993,-0.09379683434963226,0.060436610132455826,0.023827843,57.043552,Clouds
135109.755,0.00023197755217552185,0.011676013469696045,0.006130099296569824,-0.04957248643040657,-0.015744734555482864,0.03842300549149513,0.022394668,57.043552,Clouds
135109.785,0.004603467881679535,0.004975020885467529,0.0044272541999816895,-0.020027298480272293,-0.03237779811024666,0.04955585300922394,0.021409744,57.043552,Clouds
135109.815,0.003545708954334259,-0.007779955863952637,-0.00939035415649414,-0.03260684385895729,-0.11576525121927261,0.04490242525935173,0.020539382,57.043552,Clouds
135109.845,-0.004039309918880463,-0.008886277675628662,-0.0159914493560791,-0.01316568348556757,-0.0159589946269989,-0.0037719642277806997,0.019266864,57.043552,Clouds
135109.875,-0.0017217881977558136,0.006509065628051758,0.003367006778717041,0.01962200179696083,0.05716712772846222,-0.023745952174067497,0.019035665,57.043552,Clouds
135109.904,-0.0061426423490047455,9.500980377197266e-05,-0.0011240243911743164,-0.0362258180975914,-0.0157488901168108,-0.0029868786223232746,0.01746402,57.043552,Clouds
135109.934,0.00393332913517952,-0.0043413639068603516,-0.0020442605018615723,-0.029273752123117447,-0.02560487948358059,-0.03489668667316437,0.01662016,57.043552,Clouds
135109.964,0.005715321749448776,0.0012430548667907715,-0.007270455360412598,0.0682515949010849,0.013946686871349812,-0.04811574146151543,0.015252312,57.043552,Clouds
135109.994,0.003659449517726898,0.009945869445800781,-0.00553971529006958,0.09114811569452286,0.016395285725593567,-0.011907977983355522,0.014350614,57.043552,Clouds
135110.024,0.005154985934495926,0.0035409927368164062,0.0008003711700439453,0.031240910291671753,0.010931093245744705,0.002497768960893154,0.013470587,57.043552,Clouds
135110.054,0.009196493774652481,0.0050740838050842285,0.004740774631500244,-0.026388974860310555,0.01377551443874836,-0.031035076826810837,0.012219274,57.043552,Clouds
135110.083,-0.0007943511009216309,0.0078089237213134766,0.006216764450073242,-0.04647183045744896,0.03793758526444435,-0.008098594844341278,0.013087593,57.043552,Clouds
135110.113,-0.0022603459656238556,0.0014770030975341797,-0.0007399320602416992,-0.027918633073568344,-0.03718474507331848,0.00177229184191674,0.017313085,57.043552,Clouds
135110.143,0.006740923970937729,0.002429962158203125,0.003277897834777832,0.022760994732379913,-0.07393302768468857,-0.026087455451488495,0.016138962,57.043552,Clouds
135110.173,0.010373614728450775,0.006679415702819824,0.009010612964630127,-0.005674102809280157,-0.01568683236837387,-0.01925075612962246,0.47378835,57.043552,Clouds
135110.203,0.001202307641506195,0.0027077198028564453,-0.009083986282348633,-0.1028977632522583,0.015121611766517162,-0.013380292803049088,0.42059693,57.043552,Clouds
135110.233,-0.00401344895362854,0.0016466379165649414,-0.010147273540496826,-0.06262142956256866,-0.004720952361822128,-0.04264349117875099,0.3958427,57.043552,Clouds
135110.262,0.00283089280128479,-0.0010322332382202148,-0.0007862448692321777,-0.05217653140425682,-0.021700052544474602,-0.054095495492219925,0.34251422,57.043552,Clouds
135110.292,0.009035758674144745,-0.00736004114151001,-0.010398030281066895,-0.06061147525906563,0.0065285880118608475,-0.025072045624256134,0.31583464,57.043552,Clouds
135110.322,0.011838115751743317,-0.00032848119735717773,-0.017937898635864258,-0.03523870185017586,-0.010157481767237186,0.004587606526911259,0.2905734,57.043552,Clouds
135110.352,0.00924466922879219,0.016234159469604492,-0.007755100727081299,0.0773477777838707,-0.03394254669547081,0.004839664790779352,0.24015182,57.043552,Clouds
135110.382,0.0030836500227451324,0.0036509037017822266,-0.007121920585632324,0.15135422348976135,-0.06940210610628128,0.037001676857471466,0.21788123,57.043552,Clouds
135110.411,-0.0010840892791748047,-0.0033185482025146484,-0.013049840927124023,0.05069544166326523,0.009028811939060688,-0.005906140897423029,0.17620009,57.043552,Clouds
135110.441,-0.0019217133522033691,-0.0063460469245910645,-0.007851243019104004,-0.05416060984134674,0.05462229996919632,-0.039915647357702255,0.15815908,57.043552,Clouds
135110.471,-0.0007853321731090546,0.0012261271476745605,0.005578160285949707,0.011160450056195259,-0.022667912766337395,-0.014345099218189716,0.14188014,57.043552,Clouds
135110.501,-0.0004269704222679138,0.0013668537139892578,0.0004210472106933594,0.08682439476251602,-0.09567263722419739,0.033744167536497116,0.11352095,57.043552,Clouds
135110.531,0.0020994022488594055,0.0017886757850646973,-0.0038158297538757324,0.05888505280017853,-0.04751521348953247,0.02211436815559864,0.102210745,57.043552,Clouds
135110.561,-0.011523738503456116,0.004063129425048828,0.0033559203147888184,-0.05241857096552849,0.08788521587848663,-0.01137115340679884,0.08223033,57.043552,Clouds
135110.591,-0.010184679180383682,-0.006428062915802002,0.0017369985580444336,-0.046133920550346375,0.09207168966531754,-0.048531532287597656,0.07507771,57.043552,Clouds
135110.620,-0.004608154296875,0.0030755996704101562,0.003277719020843506,0.05885356664657593,-0.06547671556472778,-0.05269239842891693,0.068099074,57.043552,Clouds
135110.650,0.014888118952512741,0.0011025071144104004,0.0007717609405517578,0.08887923508882523,-0.07684687525033951,-0.026055404916405678,0.055558894,57.043552,Clouds
135110.680,0.004822868853807449,0.0013470649719238281,0.0006439685821533203,-0.05216744542121887,0.12565171718597412,-0.03733589127659798,0.050702415,57.043552,Clouds
135110.710,-0.003528110682964325,0.0037559866905212402,0.004472196102142334,-0.07487905770540237,0.05184938386082649,-0.021563820540905,0.042381916,57.043552,Clouds
135110.740,-0.0034685395658016205,0.0069158077239990234,0.007517874240875244,0.012194955721497536,-0.14163467288017273,-0.005135440733283758,0.038676266,57.043552,Clouds
135110.770,0.006355512887239456,0.005891025066375732,0.007548153400421143,-0.017279714345932007,-0.09734481573104858,-0.01734275370836258,0.034797363,57.043552,Clouds
135110.799,0.012960564345121384,0.010045826435089111,0.012538671493530273,-0.09094277024269104,-0.0053705754689872265,-0.015298371203243732,0.03025736,57.043552,Clouds
135110.829,0.00979096069931984,0.0038356781005859375,0.010176241397857666,-0.1544187366962433,-0.05002441257238388,-0.006405183579772711,0.027398437,57.043552,Clouds
135110.859,0.008625950664281845,0.012947440147399902,0.019907474517822266,-0.2502540647983551,-0.12946702539920807,0.0920795351266861,0.02413892,57.043552,Clouds
135110.889,0.015333488583564758,0.004769802093505859,-0.004856109619140625,-0.3348703980445862,-0.08858547359704971,0.10742746293544769,0.022552315,57.043552,Clouds
135110.918,0.013920500874519348,-0.017313838005065918,-0.04312276840209961,-0.2802000343799591,0.11050554364919662,0.04088887944817543,0.021827132,57.043552,Clouds
135110.948,-0.018573153764009476,-0.008205235004425049,-0.023265182971954346,-0.011034171096980572,0.12527990341186523,0.0010757555719465017,0.019565638,57.043552,Clouds
135110.978,-0.00757322832942009,-0.004793941974639893,-0.009270787239074707,0.16159546375274658,-0.05255905166268349,-0.018813850358128548,0.018882718,57.043552,Clouds
135111.008,0.00459066778421402,0.004886329174041748,-0.01009148359298706,0.1017623320221901,-0.07371487468481064,-0.022778766229748726,0.019380117,57.043552,Clouds
135111.038,0.0067862942814826965,0.005537509918212891,-0.002168715000152588,-0.07068704813718796,0.02083561196923256,-0.03626371920108795,0.0183765,57.043552,Clouds
135111.068,0.009707383811473846,0.004493594169616699,0.003821134567260742,-0.03352899104356766,0.05811375007033348,0.001938532805070281,0.01810517,57.043552,Clouds
135111.097,0.006180759519338608,0.008232712745666504,0.01675635576248169,0.11869410425424576,-0.00136502122040838,0.02308988943696022,0.017680831,57.043552,Clouds
135111.127,0.001002192497253418,0.006193220615386963,0.0035871267318725586,0.05071217939257622,-0.032099682837724686,-0.025427402928471565,0.016806217,57.043552,Clouds
135111.157,0.006106145679950714,0.00417715311050415,-0.005629897117614746,-0.01782183162868023,0.00681976368650794,-0.017307687550783157,0.015151751,57.043552,Clouds
135111.187,0.0017178505659103394,0.004668831825256348,-0.008674204349517822,-0.02376246266067028,0.005800504237413406,0.027378613129258156,0.014565165,57.043552,Clouds
135111.217,0.0012517571449279785,-0.007336616516113281,-0.018506169319152832,-0.06464217603206635,0.028765229508280754,0.005102608352899551,0.013635647,57.043552,Clouds
135111.247,-0.00838904082775116,-0.00028520822525024414,-0.02061784267425537,-0.10855264216661453,0.05510886386036873,-0.013093127869069576,0.011893404,57.043552,Clouds
135111.276,-0.007196888327598572,-0.004161357879638672,-0.01773977279663086,-0.023322734981775284,0.04383760318160057,0.008235038258135319,0.011107514,57.043552,Clouds
135111.306,0.005370829254388809,-0.0035256147384643555,-0.007532835006713867,0.15443462133407593,0.056572142988443375,-0.011886023916304111,0.012047623,57.043552,Clouds
135111.336,-0.0025135912001132965,0.0033121705055236816,-0.008007645606994629,0.1586429923772812,0.02882523648440838,0.02041405253112316,0.011143359,57.043552,Clouds
135111.366,-0.00019812583923339844,-0.0043221116065979,0.006564140319824219,0.08911832422018051,-0.016485394909977913,0.028221528977155685,0.010496316,57.043552,Clouds
135111.396,-0.002446170896291733,0.002237975597381592,0.014410614967346191,0.05070335045456886,-0.00314149959012866,-0.03259798884391785,0.01714766,57.043552,Clouds
135111.425,0.008918087929487228,0.006276369094848633,0.01747232675552368,0.09362903982400894,0.015509497374296188,-0.04152633249759674,0.016184647,57.043552,Clouds
135111.456,0.011758215725421906,0.005897402763366699,0.019109249114990234,0.05266604200005531,-0.022389283403754234,-0.001754318829625845,0.024194954,57.043552,Clouds
135111.485,0.0028818733990192413,0.014854609966278076,0.018243908882141113,-0.046319521963596344,-0.032313037663698196,-0.012595202773809433,0.0239165,57.043552,Clouds
135111.515,0.003903452306985855,0.005145847797393799,0.014208614826202393,-0.08504315465688705,-0.04785937815904617,-0.018800480291247368,0.02244213,57.043552,Clouds
135111.545,0.007317196577787399,-0.0042931437492370605,-0.010342955589294434,-0.07052791863679886,-0.08831660449504852,0.006259690970182419,0.019489659,57.043552,Clouds
135111.575,0.00350763276219368,0.004100441932678223,-0.006108224391937256,0.04335061088204384,-0.03779919818043709,0.03315557539463043,0.018189292,57.043552,Clouds
135111.605,0.006954323500394821,0.004775643348693848,-0.0010881423950195312,0.0667063444852829,-0.023496756330132484,0.00203605811111629,0.04019792,57.043552,Clouds
135111.635,0.0012032873928546906,-0.0005854964256286621,-0.005725562572479248,-0.03688191622495651,-0.027580156922340393,-0.01296929083764553,0.11408784,57.043552,Clouds
135111.664,-0.0030172429978847504,0.0024762749671936035,-0.0010925531387329102,-0.05399778112769127,-0.010584351606667042,-0.004054112359881401,0.11236774,57.043552,Clouds
135111.694,0.0031821057200431824,2.562999725341797e-06,-0.0032900571823120117,0.018251238390803337,-0.028842508792877197,-0.0021703988313674927,0.106708735,57.043552,Clouds
135111.724,0.0035823509097099304,0.0032122135162353516,0.0021725893020629883,0.02378430962562561,-0.030643068253993988,0.00444138003513217,0.10526679,57.043552,Clouds
135111.754,-0.001200266182422638,0.0026328563690185547,-0.007126748561859131,0.018523039296269417,-0.01394785288721323,0.02356729470193386,0.092357814,57.043552,Clouds
135111.784,0.0007290728390216827,0.0006518363952636719,-0.011075258255004883,0.017125288024544716,0.0009970666142180562,0.0016600710805505514,0.08452748,57.043552,Clouds
135111.813,-0.003545403480529785,-0.0012971162796020508,-0.012238144874572754,-0.024160195142030716,0.004956073593348265,-0.026388805359601974,0.07768237,57.043552,Clouds
135111.843,0.00015406683087348938,-0.001165926456451416,-0.0075647830963134766,-0.008208685554564,-0.02322530373930931,-0.02449520118534565,0.06582522,57.043552,Clouds
135111.873,0.0009479522705078125,0.0010573863983154297,-0.003423452377319336,0.020304985344409943,0.0008544232114218175,0.013670583255589008,0.06221917,57.043552,Clouds
135111.903,-0.009553968906402588,0.0049097537994384766,-0.0018776655197143555,0.03585417941212654,0.017090804874897003,0.007079858332872391,0.16132498,57.043552,Clouds
135111.933,-0.0014956742525100708,-0.009549081325531006,-0.004395723342895508,0.03569404035806656,-0.011309415102005005,-0.017786022275686264,0.15128592,57.043552,Clouds
135111.963,-0.004241727292537689,-0.0022518038749694824,-0.002041757106781006,0.024697408080101013,-0.01564250886440277,-0.009179065935313702,0.14406629,57.043552,Clouds
135111.992,-0.009782325476408005,0.003915250301361084,0.003970980644226074,-0.00961796473711729,0.019273236393928528,-0.045211754739284515,0.12864672,57.043552,Clouds
135112.022,-0.008053623139858246,0.0008692145347595215,0.004348099231719971,0.0049777766689658165,-0.033830609172582626,-0.07252179831266403,0.12067316,57.043552,Clouds
135112.052,-0.008559897541999817,-0.0037658214569091797,-0.01287311315536499,0.010217065922915936,-0.05372252315282822,-0.03362267464399338,0.100709744,57.043552,Clouds
135112.081,0.0027026981115341187,-0.0033286213874816895,0.0028786659240722656,0.02428794652223587,0.009717297740280628,-0.04960228130221367,0.09181734,57.043552,Clouds
135112.112,0.0014991387724876404,0.005343794822692871,0.01170492172241211,0.035904042422771454,0.0259993989020586,-0.05323408544063568,0.08608277,57.043552,Clouds
135112.142,0.0077096447348594666,-0.00038802623748779297,0.0034770965576171875,-0.02930508181452751,-0.012769373133778572,-0.03826836124062538,0.078748405,57.043552,Clouds
135112.171,0.010287806391716003,0.008466482162475586,0.010016918182373047,-0.039862312376499176,0.029779529199004173,-0.03896654397249222,0.07264288,57.043552,Clouds
135112.201,0.016656558960676193,0.010747730731964111,0.01026010513305664,-0.04469079151749611,0.08821915090084076,-0.020502833649516106,0.06310643,57.043552,Clouds
135112.231,0.01256272941827774,0.00497126579284668,0.01812279224395752,-0.06831708550453186,0.06713797897100449,0.034668125212192535,0.05843542,57.043552,Clouds
135112.261,0.009752899408340454,0.0004857778549194336,0.011064469814300537,-0.04515571892261505,0.010803348384797573,0.0015902845188975334,0.0583987,57.043552,Clouds
135112.290,0.01599276438355446,0.005724668502807617,0.0008827447891235352,0.012005305849015713,-0.012072167359292507,-0.04218027740716934,0.05257096,57.043552,Clouds
135112.321,0.023387830704450607,0.014659106731414795,-0.00016188621520996094,-0.04011298343539238,0.03654376044869423,-0.02328004688024521,0.047818262,57.043552,Clouds
135112.351,0.017489757388830185,0.008817195892333984,0.002348959445953369,-0.036003585904836655,0.039789944887161255,0.01982555352151394,0.04036592,57.043552,Clouds
135112.380,0.004537958651781082,0.009398579597473145,-0.005846261978149414,0.02079721726477146,-0.032621849328279495,0.04735856130719185,0.038294155,57.043552,Clouds
135112.410,0.007006607949733734,0.003942310810089111,-0.016994476318359375,-0.01855739951133728,-0.028395524248480797,0.04027546942234039,0.061147135,57.043552,Clouds
135112.440,0.0019290409982204437,0.006474196910858154,-0.014201045036315918,-0.04357114061713219,0.05631381645798683,0.04406752437353134,0.075059995,57.043552,Clouds
135112.470,-0.002537321299314499,0.0058550238609313965,-0.010678708553314209,-0.015186667442321777,0.1082226112484932,0.08923542499542236,0.070402,57.043552,Clouds
135112.500,-0.005199134349822998,0.0016571879386901855,0.005109965801239014,0.021251266822218895,0.051872413605451584,0.09958460181951523,0.067557715,57.043552,Clouds
135112.529,-0.0103074312210083,-0.00884026288986206,-0.0005039572715759277,-0.005824236199259758,-0.05131087824702263,0.08965783566236496,0.06399995,57.043552,Clouds
135112.559,-0.01332882046699524,-0.018157482147216797,-0.0032728910446166992,-0.006574956700205803,-0.020524699240922928,0.0600881390273571,0.060256816,57.043552,Clouds
135112.589,-0.012000251561403275,-0.00988161563873291,0.0029701590538024902,0.0101075554266572,0.03446317836642265,-0.012328474782407284,0.067537695,57.043552,Clouds
135112.619,-0.007048673927783966,-0.005211830139160156,0.009399354457855225,0.005637355148792267,0.01667124591767788,-0.013288087211549282,0.06611244,57.043552,Clouds
135112.649,-0.0035902857780456543,0.0028821229934692383,-0.002436995506286621,-0.05004272609949112,0.0025756864342838526,-0.006817763205617666,0.0617273,57.043552,Clouds
135112.678,0.002948608249425888,0.006825387477874756,-0.0010923147201538086,-0.04650149866938591,0.041226454079151154,-0.027867401018738747,0.059765477,57.043552,Clouds
135112.708,0.006041929125785828,0.010842084884643555,0.005880951881408691,-0.032668404281139374,0.05221128463745117,-0.02340376190841198,0.0560746,57.043552,Clouds
135112.738,0.0018694661557674408,0.008963346481323242,0.0064370036125183105,-0.10796833038330078,0.057356420904397964,0.029052874073386192,0.04736922,57.043552,Clouds
135112.768,0.0016452111303806305,-0.002225518226623535,-0.005772292613983154,-0.15540552139282227,0.1255751997232437,0.025739561766386032,0.048872266,57.043552,Clouds
135112.798,-0.0011746399104595184,-0.0064847469329833984,-0.0035376548767089844,-0.08466584235429764,0.1726454496383667,-0.023270484060049057,0.047449563,57.043552,Clouds
135112.827,-0.0016137175261974335,-0.006157875061035156,0.0026019811630249023,-0.001579150091856718,0.048587530851364136,-0.04204907640814781,0.04457872,57.043552,Clouds
135112.857,0.00013533234596252441,-0.0015914440155029297,-0.005658507347106934,-0.029960595071315765,-0.09347976744174957,-0.018192900344729424,0.042886317,57.043552,Clouds
135112.887,0.004657361656427383,0.01139843463897705,-0.005396485328674316,-0.035648163408041,-0.046972472220659256,-0.029858028516173363,0.03860713,57.043552,Clouds
135112.917,0.0064514875411987305,0.010292112827301025,-0.006237328052520752,-0.013125945813953876,0.01793571561574936,-0.013569050468504429,0.036854543,57.043552,Clouds
135112.947,0.0011391974985599518,0.0006614923477172852,-0.01006847620010376,-0.016809776425361633,-0.022053657099604607,0.020091809332370758,0.035509355,57.043552,Clouds
135112.977,0.004216331988573074,-0.004248499870300293,-0.004564881324768066,0.0007506115362048149,-0.033498361706733704,-0.0024401070550084114,0.032433778,57.043552,Clouds
135113.007,0.006061825901269913,0.0035226941108703613,0.0015537142753601074,0.048500556498765945,0.029420949518680573,-0.029510339722037315,0.030382229,57.043552,Clouds
135113.036,0.0025793127715587616,0.003811180591583252,0.0019167065620422363,0.010206128470599651,0.009490685537457466,0.005053737200796604,0.026402434,57.043552,Clouds
135113.066,-0.003881070762872696,0.0017302632331848145,0.004513204097747803,-0.0376938059926033,0.015198290348052979,0.018674302846193314,0.024805892,57.043552,Clouds
135113.095,-0.0045731887221336365,0.006181180477142334,0.015688717365264893,0.0072105927392840385,0.07126209884881973,-0.03098086081445217,0.049260728,57.043552,Clouds
135113.125,0.00604267418384552,0.002964496612548828,0.010808587074279785,-0.01114422082901001,0.07595465332269669,-0.05377363786101341,0.042575575,57.043552,Clouds
135113.156,0.0044289231300354,-0.0007447600364685059,0.00016677379608154297,-0.07821919023990631,0.07407058030366898,-0.033253252506256104,0.05458801,57.043552,Clouds
135113.186,0.0014105215668678284,0.0018804669380187988,-0.0066031813621521,-0.07681052386760712,0.10128962993621826,-0.03277701511979103,0.051779043,57.043552,Clouds
135113.215,0.002865120768547058,0.003869175910949707,-0.004096329212188721,-0.035339776426553726,0.01028396375477314,-0.040745142847299576,0.050527625,57.043552,Clouds
135113.245,0.005650617182254791,-0.00026297569274902344,-0.001042187213897705,0.0011957401875406504,-0.051031000912189484,-0.0014364130329340696,0.048137065,57.043552,Clouds
135113.275,0.004348635673522949,0.002476930618286133,-0.009562671184539795,-0.024832623079419136,-0.025123681873083115,0.010863637551665306,0.039787177,57.043552,Clouds
135113.305,0.0107034370303154,0.004009366035461426,-0.0014178156852722168,-0.0015824955189600587,0.023102842271327972,-0.02770255133509636,0.03662767,57.043552,Clouds
135113.335,0.011546775698661804,0.00822460651397705,-0.004450321197509766,0.008575066924095154,0.01421614084392786,-0.010222360491752625,0.047124848,57.043552,Clouds
135113.364,0.0055875033140182495,0.006263315677642822,-0.007612943649291992,-0.010852959007024765,-0.02601570077240467,0.032010581344366074,0.06340901,57.043552,Clouds
135113.394,0.011793337762355804,0.0001716017723083496,-0.009540736675262451,0.0012236721813678741,0.002649039728567004,0.017434723675251007,0.05824019,57.043552,Clouds
135113.424,0.004940524697303772,0.0005587339401245117,-0.006711900234222412,0.00651227030903101,0.05058005452156067,0.01958499662578106,0.051249795,57.043552,Clouds
135113.454,-0.0017792433500289917,0.0022444725036621094,0.0036007165908813477,0.00889549870043993,0.031448472291231155,0.022687289863824844,0.050478913,57.043552,Clouds
135113.484,-0.004890337586402893,-0.0007584691047668457,-0.0014098286628723145,-0.011423006653785706,-0.029446521773934364,0.019692491739988327,0.045806583,57.043552,Clouds
135113.514,-0.0017041489481925964,0.005158543586730957,0.006169438362121582,0.01768820360302925,0.04162795841693878,-0.00044096983037889004,0.044391286,57.043552,Clouds
135113.543,0.004927031695842743,-0.002373337745666504,-0.005618035793304443,-0.011593855917453766,0.04287528991699219,-0.006923346314579248,0.041906353,57.043552,Clouds
135113.573,0.005702123045921326,0.0020264387130737305,-0.00497746467590332,-0.015762053430080414,0.007377434056252241,0.01170474011451006,0.037084285,57.043552,Clouds
135113.603,0.001199468970298767,0.0049874186515808105,-0.005676984786987305,0.018662376329302788,0.0137621546164155,0.04227537289261818,0.034788378,57.043552,Clouds
135113.633,-0.003609172999858856,0.0017740130424499512,-0.006441056728363037,0.007205539848655462,0.010006879456341267,0.04076448827981949,0.03303132,57.043552,Clouds
135113.663,-0.001095883548259735,-0.003039538860321045,0.0037227869033813477,0.028344156220555305,0.021300705149769783,0.02082793042063713,0.030303247,57.043552,Clouds
135113.692,-0.010124854743480682,0.00420832633972168,0.0015878081321716309,0.003594119567424059,-0.00018905720207840204,0.001665058545768261,0.028501313,57.043552,Clouds
135113.722,-0.010828368365764618,0.0028291940689086914,0.00032639503479003906,-0.02387787587940693,-0.005254031158983707,0.0007935878820717335,0.031286202,57.043552,Clouds
135113.752,-0.0013051703572273254,0.0008908510208129883,-0.004514098167419434,-0.00820950511842966,-0.003372439881786704,-0.030371837317943573,0.02870298,57.043552,Clouds
135113.782,0.01174280047416687,-0.007184743881225586,-0.014348626136779785,-0.0028052411507815123,0.014871569350361824,-0.024776306003332138,0.02578588,57.043552,Clouds
135113.812,0.0132673978805542,0.0014211535453796387,-0.0031943917274475098,0.04889003559947014,0.07430607080459595,0.013134385459125042,0.02392256,57.043552,Clouds
135113.842,0.004115290939807892,0.012233316898345947,0.009106814861297607,0.030072785913944244,0.04251939803361893,0.018759729340672493,0.023026342,57.043552,Clouds
135113.871,0.005450055003166199,0.009712576866149902,0.01263880729675293,-0.013313552364706993,-0.05157183110713959,-0.00693643419072032,0.021256939,57.043552,Clouds
135113.901,0.005634434521198273,0.004974424839019775,0.0048362016677856445,0.004714193753898144,-0.048183828592300415,0.0018257442861795425,0.02120886,57.043552,Clouds
135113.931,0.004531890153884888,0.0001722574234008789,-0.006200551986694336,-0.013109617866575718,-0.004185072146356106,0.04023502767086029,0.019779392,57.043552,Clouds
135113.961,-0.006804049015045166,0.001649320125579834,-0.0072863101959228516,-0.01927078515291214,0.014006191864609718,0.02545369602739811,0.02150288,57.043552,Clouds
135113.991,0.00028605759143829346,-0.004498124122619629,-0.0024827122688293457,0.039585378021001816,-0.028039028868079185,-0.011438783258199692,0.025570355,57.043552,Clouds
135114.021,-0.0013525262475013733,0.003314971923828125,0.00034606456756591797,0.043633099645376205,-0.05899554118514061,0.0029219333082437515,0.022462752,57.043552,Clouds
135114.050,0.002363331615924835,0.007760226726531982,0.01081705093383789,0.04348697513341904,-0.02583985961973667,0.00788835622370243,0.020884449,57.043552,Clouds
135114.080,-0.007281482219696045,0.009374082088470459,0.008567452430725098,-0.00994792953133583,-0.004149235785007477,0.015115946531295776,0.040928774,57.043552,Clouds
135114.110,-0.0024879127740859985,-0.004807531833648682,0.003288090229034424,-0.052316442131996155,-0.05248580500483513,0.011232409626245499,0.038992397,57.043552,Clouds
135114.140,-0.0010975971817970276,-0.008814215660095215,0.00032073259353637695,-0.02683136612176895,-0.05789237096905708,-0.013952471315860748,0.038266677,57.043552,Clouds
135114.170,-0.0049749091267585754,-0.004431188106536865,-0.014530360698699951,-0.002822908340021968,-0.030002938583493233,-0.03408808261156082,0.033250716,57.043552,Clouds
135114.200,-0.000194646418094635,-0.00145721435546875,-0.013472557067871094,0.022721512243151665,-0.0032017312478274107,-0.05755472183227539,0.031081483,57.043552,Clouds
135114.229,0.004525870084762573,0.0011699795722961426,-0.020877540111541748,7.96690583229065e-05,0.017347995191812515,-0.0518704354763031,0.037388448,57.043552,Clouds
135114.259,0.001347668468952179,0.003677845001220703,-0.012550413608551025,0.03337521851062775,0.010153827257454395,4.268402699381113e-05,0.035552464,57.043552,Clouds
135114.289,0.0027377158403396606,0.007750749588012695,-0.006407618522644043,0.1023564413189888,0.01981787197291851,0.018142350018024445,0.03278024,57.043552,Clouds
135114.319,0.004218727350234985,0.0047563910484313965,0.0019549131393432617,0.06373089551925659,-0.0069822585210204124,0.009754661470651627,0.02903089,57.043552,Clouds
135114.349,-0.0011839866638183594,-0.0030825138092041016,-0.00204545259475708,0.006196843925863504,-0.04797856882214546,-0.007244934793561697,0.027308974,57.043552,Clouds
135114.378,0.00023066997528076172,0.004486739635467529,0.0010738968849182129,0.041753239929676056,-0.017592431977391243,-0.007074225693941116,0.035402603,57.043552,Clouds
135114.408,0.01298435777425766,0.0032913684844970703,-0.0015355348587036133,0.040924131870269775,-0.027623694390058517,-0.01828058995306492,0.033801734,57.043552,Clouds
135114.438,0.005356505513191223,0.0011292099952697754,-0.004343867301940918,0.07116285711526871,-0.05690741539001465,0.016320623457431793,0.031061646,57.043552,Clouds
135114.468,0.005437798798084259,0.001425623893737793,-0.006437540054321289,0.06302648782730103,-0.009377771988511086,0.02536611258983612,0.028154984,57.043552,Clouds
135114.498,-0.0006961598992347717,0.002931833267211914,-0.014163732528686523,0.018152832984924316,0.01150465477257967,0.018028756603598595,0.026429437,57.043552,Clouds
135114.528,0.004021994769573212,0.0034173130989074707,-0.006146788597106934,0.07961241900920868,0.03373059257864952,0.011911280453205109,0.030791307,57.043552,Clouds
135114.557,-0.0017846450209617615,0.00015467405319213867,-0.006866276264190674,0.09163971245288849,-0.03524939715862274,0.029838191345334053,0.030644787,57.043552,Clouds
135114.587,-0.010032065212726593,0.0041727423667907715,-0.0008887052536010742,0.1232004389166832,-0.07033568620681763,0.025056157261133194,0.029507298,57.043552,Clouds
135114.617,-0.006255537271499634,-0.0032144784927368164,-0.008310437202453613,0.1239992082118988,-0.057097334414720535,-0.015100394375622272,0.027389865,57.043552,Clouds
135114.647,-0.012242455035448074,-0.002631843090057373,-0.01814711093902588,0.10672677308320999,-0.06392931938171387,-0.08058478683233261,0.025962725,57.043552,Clouds
135114.677,0.007192149758338928,-0.005553543567657471,-0.034171462059020996,0.12392663210630417,-0.09914372116327286,-0.10428281873464584,0.02636238,57.043552,Clouds
135114.707,0.011832226067781448,-0.0008781552314758301,-0.04209768772125244,0.13038645684719086,-0.08640428632497787,0.0007376472931355238,0.05623782,57.043552,Clouds
135114.736,0.007156528532505035,0.005884826183319092,-0.025227844715118408,0.18470337986946106,0.029410408809781075,0.07121046632528305,0.051233266,57.043552,Clouds
135114.766,0.009294945746660233,0.0012892484664916992,-0.005847632884979248,0.20471683144569397,0.04381115734577179,0.028239412233233452,0.046744645,57.043552,Clouds
135114.796,0.0036444924771785736,0.006098806858062744,0.0006511211395263672,0.1508769541978836,-0.024408353492617607,0.012656951323151588,0.045296397,57.043552,Clouds
135114.826,0.007423017174005508,0.006717681884765625,0.006510913372039795,0.16134946048259735,-0.06710344552993774,0.033905867487192154,0.060426753,57.043552,Clouds
135114.856,0.00475359708070755,0.010140836238861084,0.009926915168762207,0.18094950914382935,-0.0413806214928627,0.06370249390602112,0.057069387,57.043552,Clouds
135114.886,-0.00390862300992012,0.002659142017364502,0.00426936149597168,0.11461295932531357,0.001631237450055778,0.012968274764716625,0.05608553,57.043552,Clouds
135114.915,-0.009332876652479172,0.002949357032775879,0.0023604631423950195,0.0627509355545044,0.03658318892121315,0.01830436848104,0.049833532,57.043552,Clouds
135114.945,-0.00164693221449852,-0.0032715201377868652,0.010356605052947998,0.09873435646295547,-0.004019157029688358,0.05868513882160187,0.047218073,57.043552,Clouds
135114.975,-0.013362456113100052,-0.0007660388946533203,0.01129162311553955,0.15635982155799866,-0.04396357387304306,0.05628658086061478,0.040304527,57.043552,Clouds
135115.005,-0.016388829797506332,0.0011913180351257324,0.012529253959655762,0.19466155767440796,-0.11255596578121185,0.00935801025480032,0.038771972,57.043552,Clouds
135115.035,0.0029023773968219757,-0.001955270767211914,0.009978055953979492,0.1665312945842743,-0.126804918050766,-0.028642939403653145,0.03595454,57.043552,Clouds
135115.065,0.0025998279452323914,0.005537211894989014,0.00909733772277832,0.09702343493700027,-0.07184337824583054,-0.003132226876914501,0.03202227,57.043552,Clouds
135115.094,0.005451753735542297,0.000698387622833252,0.018976688385009766,0.10386671125888824,-0.0369536466896534,0.020382454618811607,0.05971084,57.043552,Clouds
135115.124,0.005817316472530365,-0.004397034645080566,0.013222336769104004,0.09357991814613342,-0.06993389874696732,0.017799675464630127,0.06015495,57.043552,Clouds
135115.154,0.0025685615837574005,-0.0004937052726745605,0.013391971588134766,0.09605919569730759,-0.09349323064088821,-0.002581290900707245,0.055790234,57.043552,Clouds
135115.184,-0.0008421726524829865,0.013539731502532959,0.021142125129699707,0.11065857857465744,-0.09661571681499481,-0.00023829052224755287,0.06739628,57.043552,Clouds
135115.214,-7.067620754241943e-05,0.007905006408691406,0.001835167407989502,0.029818948358297348,-0.09395113587379456,0.00963148195296526,0.057380855,57.043552,Clouds
135115.243,-0.0008189454674720764,0.0073659420013427734,-0.002831578254699707,-0.03287127614021301,-0.027767697349190712,0.009735221043229103,0.05358228,57.043552,Clouds
135115.273,0.004607189446687698,-0.00011241436004638672,-0.0007443428039550781,0.014816366136074066,0.005350157618522644,-0.001527409884147346,0.0500323,57.043552,Clouds
135115.303,-0.003378435969352722,-0.004117190837860107,0.0051763057708740234,0.06027659401297569,-0.03984256833791733,-0.0036546490155160427,0.045805413,57.043552,Clouds
135115.333,-0.004908449947834015,0.0002218484878540039,-0.000672757625579834,0.025175094604492188,-0.06815710663795471,-0.002192895160987973,0.043274924,57.043552,Clouds
135115.363,-0.001248188316822052,-0.0008345246315002441,-0.004062831401824951,-0.01368569303303957,-0.037295665591955185,-0.011798340827226639,0.04114229,57.043552,Clouds
135115.393,-0.0025116093456745148,0.0019511580467224121,0.0029131174087524414,0.01324390061199665,0.023691678419709206,-0.013598974794149399,0.040576644,57.043552,Clouds
135115.422,-0.004461895674467087,0.0030764341354370117,0.008011817932128906,0.03346512094140053,0.004362958017736673,-0.009457526728510857,0.034514163,57.043552,Clouds
135115.452,-0.006163123995065689,-3.409385681152344e-05,0.003980398178100586,0.00633173156529665,-0.09505688399076462,-0.0009159670444205403,0.03230804,57.043552,Clouds
135115.482,0.002862144261598587,-0.0008624792098999023,0.00012314319610595703,-0.0076245879754424095,-0.041215378791093826,-0.04610240086913109,0.030287914,57.043552,Clouds
135115.512,0.01392047107219696,0.0024130940437316895,-0.0012446045875549316,-0.026632413268089294,-0.010134316980838776,-0.06411643326282501,0.026798315,57.043552,Clouds
135115.542,0.017399385571479797,0.015931367874145508,0.00807201862335205,-0.013203759677708149,0.011155781336128712,-0.006628918927162886,0.025356077,57.043552,Clouds
135115.572,0.016484573483467102,0.010971665382385254,0.0015499591827392578,-0.03330646827816963,-0.006186471786350012,0.028538713231682777,0.026004555,57.043552,Clouds
135115.601,0.012912862002849579,0.009190678596496582,-0.0034301280975341797,-0.016395801678299904,-0.002573153004050255,0.028376054018735886,0.02433087,57.043552,Clouds
135115.631,0.009759053587913513,0.0009423494338989258,-0.009690523147583008,0.00918047409504652,0.01448763720691204,0.05846197158098221,0.062464643,57.043552,Clouds
135115.661,-0.004598807543516159,0.0015221238136291504,-0.00316774845123291,0.010771668516099453,-0.011624472215771675,0.058873534202575684,0.06768258,57.043552,Clouds
135115.691,-0.01191173866391182,-0.002048313617706299,-0.011318564414978027,-0.012280217371881008,0.012217234820127487,0.022923216223716736,0.064492755,57.043552,Clouds
135115.721,-0.010085709393024445,-0.008283913135528564,-0.00854027271270752,-0.02031604014337063,0.035370223224163055,0.003623021300882101,0.056124616,57.043552,Clouds
135115.750,-0.011007871478796005,-0.0073416829109191895,-0.0024601221084594727,0.016515620052814484,-0.020114203914999962,0.02332739345729351,0.052293036,57.043552,Clouds
135115.780,-0.00902431458234787,-0.00587773323059082,-0.009371399879455566,0.026071825996041298,-0.01420963741838932,0.016508786007761955,0.04875975,57.043552,Clouds
135115.810,-0.00348721444606781,-8.553266525268555e-05,-0.008330225944519043,-0.013827834278345108,0.06161327660083771,-0.02008730173110962,0.043836962,57.043552,Clouds
135115.840,0.00210731104016304,0.005106329917907715,0.0037555694580078125,0.007565866690129042,0.029307911172509193,-0.013500448316335678,0.040776435,57.043552,Clouds
135115.870,0.006344694644212723,0.009809672832489014,0.011546432971954346,0.03627469390630722,-0.02456902340054512,0.006848962511867285,0.038864203,57.043552,Clouds
135115.900,0.006698161363601685,0.004753291606903076,0.008111834526062012,-0.005956101231276989,0.004494702443480492,0.018348369747400284,0.032251414,57.043552,Clouds
135115.929,0.006539285182952881,0.001350104808807373,0.008202731609344482,-0.029454633593559265,0.012997357174754143,0.021758513525128365,0.030130299,57.043552,Clouds
135115.959,0.0054996199905872345,0.003491222858428955,0.004974544048309326,-0.024398192763328552,-0.01576612889766693,0.03025032766163349,0.026318096,57.043552,Clouds
135115.989,-0.0013587996363639832,0.0051316022872924805,0.003542602062225342,-0.01902296394109726,-0.014634793624281883,0.04468382149934769,0.025992446,57.043552,Clouds
135116.019,-0.0007897280156612396,0.0006203651428222656,-0.007713794708251953,-0.041093144565820694,-0.001637734705582261,0.015064921230077744,0.024776835,57.043552,Clouds
135116.049,-0.00031748227775096893,-0.005832493305206299,-0.014969170093536377,-0.02478157728910446,-0.0007718646666035056,2.291001146659255e-05,0.023551533,57.043552,Clouds
135116.078,6.183423101902008e-05,-0.0002930164337158203,-0.010336041450500488,0.022948550060391426,0.0008301585912704468,0.012208474799990654,0.02268577,57.043552,Clouds
135116.108,0.0011691581457853317,-5.841255187988281e-05,-0.004816889762878418,0.0344388447701931,0.039312999695539474,0.01945393718779087,0.020825185,57.043552,Clouds
135116.138,-0.0023303627967834473,0.0013562440872192383,0.0039044618606567383,-0.004802018869668245,0.032030969858169556,0.022474903613328934,0.020281155,57.043552,Clouds
135116.168,-0.004405288025736809,0.006148159503936768,0.008718371391296387,-0.005892736837267876,-0.008110765367746353,0.009544109925627708,0.019950809,57.043552,Clouds
135116.198,-0.001978173851966858,0.004699826240539551,0.006612539291381836,-0.0009795839432626963,-0.02162400260567665,-0.012897999957203865,0.018689148,57.043552,Clouds
135116.228,-0.0022959187626838684,0.0013862252235412598,0.001101851463317871,-0.04258779063820839,-0.010332204401493073,0.0035968918818980455,0.017563306,57.043552,Clouds
135116.258,-0.005299810320138931,-0.005931198596954346,-0.004451870918273926,-0.03857393562793732,-0.002875630045309663,0.018223758786916733,0.016336605,57.043552,Clouds
135116.287,-0.007506584748625755,-0.006400346755981445,-0.007653295993804932,0.008782397955656052,-0.01626995950937271,0.007930541411042213,0.021634817,57.043552,Clouds
135116.317,-0.0056329146027565,0.0005847811698913574,-0.008497476577758789,0.0005900415126234293,0.003127599833533168,-0.016076114028692245,0.020450098,57.043552,Clouds
135116.347,-0.006602376699447632,0.002026081085205078,-0.005505025386810303,-0.022602736949920654,0.01850753277540207,-0.01097483467310667,0.0203401,57.043552,Clouds
135116.377,-0.00335652194917202,-0.0003566741943359375,-0.0038434863090515137,0.01298828050494194,0.020477738231420517,-0.0033531347289681435,0.019720647,57.043552,Clouds
135116.407,-0.004901088774204254,-0.0009775161743164062,0.00025647878646850586,0.024622295051813126,-0.006055071484297514,0.0010209291940554976,0.01865422,57.043552,Clouds
135116.436,0.0016159247606992722,-0.0029436349868774414,0.002028346061706543,0.010406549088656902,0.0025049285031855106,-0.02767573855817318,0.017726505,57.043552,Clouds
135116.467,-0.0008860230445861816,0.007565200328826904,0.006380438804626465,-0.017812460660934448,0.026773646473884583,-0.03300570696592331,0.016613135,57.043552,Clouds
135116.496,0.008585453033447266,0.002611219882965088,0.011313080787658691,-0.026563648134469986,0.013913160189986229,-0.036336153745651245,0.025591042,57.043552,Clouds
135116.526,0.008679918944835663,0.005280852317810059,0.0068888068199157715,-0.020793965086340904,-0.03153068572282791,-0.0005662140320055187,0.024219567,57.043552,Clouds
135116.556,0.002172645181417465,0.003150641918182373,-0.0016885995864868164,-0.008987152948975563,0.0016857741866260767,0.012944101355969906,0.022003016,57.043552,Clouds
135116.586,0.00022709742188453674,-0.003638148307800293,-0.00855410099029541,-0.017243320122361183,0.007080907933413982,0.000845023081637919,0.020566072,57.043552,Clouds
135116.615,0.0014193467795848846,0.005205929279327393,-0.0011038780212402344,-0.0012507649371400476,-0.02011776715517044,-0.012857973575592041,0.0196638,57.043552,Clouds
135116.645,0.006943754851818085,0.002840101718902588,-0.005815029144287109,-0.010104821063578129,-0.0170978344976902,-0.016892313957214355,0.01744647,57.043552,Clouds
135116.675,-0.004102244973182678,0.003959238529205322,-0.005495667457580566,-0.014754511415958405,0.02634413354098797,0.01661219634115696,0.017337149,57.043552,Clouds
135116.705,-0.004458140581846237,0.002577543258666992,0.0009918212890625,0.015239182859659195,0.0071891723200678825,0.001535423332825303,0.016056502,57.043552,Clouds
135116.735,0.0027164071798324585,-0.0014556050300598145,0.0014674663543701172,0.020631393417716026,-0.04802187159657478,-0.018314501270651817,0.015481325,57.043552,Clouds
135116.765,0.005375277251005173,-0.00026112794876098633,0.001193702220916748,-0.022523073479533195,-0.012935798615217209,-0.006257592234760523,0.014594075,57.043552,Clouds
135116.794,-0.0006671585142612457,0.00532221794128418,0.0036115050315856934,-0.02951820194721222,0.0561562180519104,-0.0006380063714459538,0.029191919,57.043552,Clouds
135116.824,-0.006210431456565857,0.0046762824058532715,0.0005676150321960449,-0.00877426378428936,0.00025354037643410265,0.004586779046803713,0.02709096,57.043552,Clouds
135116.854,-0.0016642920672893524,-0.001379251480102539,-0.001001119613647461,-0.009933080524206161,-0.057739198207855225,-0.005323929712176323,0.023350382,57.043552,Clouds
135116.884,0.003187965601682663,-0.0031424760818481445,-0.002416849136352539,-0.02242134138941765,-0.026255866512656212,-0.010294412262737751,0.022001265,57.043552,Clouds
135116.914,0.0040731281042099,-0.002620697021484375,-0.0021097660064697266,0.008397838100790977,0.006680096499621868,-0.0010262017603963614,0.02018156,57.043552,Clouds
135116.944,0.0019791945815086365,-0.0006690621376037598,-0.00746995210647583,-0.012691563926637173,0.014177413657307625,0.004218953661620617,0.017736284,57.043552,Clouds
135116.973,0.003955349326133728,0.008174479007720947,0.0033215880393981934,-0.009026849642395973,0.02435874566435814,0.008432827889919281,0.017393973,57.043552,Clouds
135117.003,0.004540812224149704,0.00483393669128418,0.010685741901397705,0.009992005303502083,-0.01081930659711361,0.021955113857984543,0.015797894,57.043552,Clouds
135117.033,-0.004658052697777748,0.004166841506958008,0.009079992771148682,-0.024308128282427788,-0.025084825232625008,0.032113946974277496,0.014794822,57.043552,Clouds
135117.063,-0.005625594407320023,-0.0039052963256835938,0.0015791654586791992,-0.07069238275289536,0.030119651928544044,0.028706148266792297,0.014136708,57.043552,Clouds
135117.092,-0.006269641220569611,-0.005630195140838623,0.00018334388732910156,-0.0025995003525167704,0.06530676037073135,0.002662480343133211,0.012962546,57.043552,Clouds
135117.123,-0.005653996020555496,0.00021010637283325195,0.0023900866508483887,0.08641915768384933,-0.007537755649536848,0.01127016544342041,0.01792885,57.043552,Clouds
135117.152,-0.0007520746439695358,0.005721867084503174,-0.010180830955505371,0.007983018644154072,-0.08309561759233475,0.0023296887520700693,0.015774531,57.043552,Clouds
135117.182,0.0018853601068258286,-0.0014469027519226074,-0.01865971088409424,-0.07366418838500977,0.011380701325833797,0.0031527283135801554,0.015242597,57.043552,Clouds
135117.212,-0.0003260858356952667,-0.0012506842613220215,-0.011575400829315186,0.002964656101539731,0.06916126608848572,-0.0004942869418300688,0.014377922,57.043552,Clouds
135117.242,-0.004170393571257591,-0.0016759634017944336,-0.0028973817825317383,0.05713579058647156,-0.02797478623688221,0.010534560307860374,0.01294171,57.043552,Clouds
135117.272,0.0019394885748624802,0.002483069896697998,-0.00196230411529541,0.018621332943439484,-0.03137390315532684,-0.011578097008168697,0.012238169,57.043552,Clouds
135117.302,0.004013575613498688,-0.001680910587310791,-0.007905840873718262,-0.04614924639463425,0.012910760939121246,-0.02358819730579853,0.019085484,57.043552,Clouds
135117.332,0.001528112217783928,-0.0009223818778991699,-0.000432431697845459,-0.0048894127830863,0.04127247631549835,0.012668753042817116,0.017571537,57.043552,Clouds
135117.361,-0.002359030768275261,0.0028235912322998047,0.007587790489196777,0.04496278613805771,0.024606214836239815,0.01758650876581669,0.01620352,57.043552,Clouds
135117.391,-0.0011655371636152267,0.0003787875175476074,0.0068874359130859375,-0.005678845569491386,0.007646175101399422,0.0021947482600808144,0.0143714,57.043552,Clouds
135117.421,-0.0024399086833000183,0.0016646385192871094,0.012512564659118652,0.0009668495040386915,0.05950275808572769,-0.00012992718257009983,0.013480937,57.043552,Clouds
135117.451,-0.008164443075656891,-0.0007838010787963867,0.004422307014465332,-0.005235231015831232,0.007339064497500658,0.01518386509269476,0.012467809,57.043552,Clouds
135117.480,-0.007792752236127853,-0.004078984260559082,-0.010048151016235352,-0.009223385713994503,-0.0485263429582119,-0.020798923447728157,0.0150835235,57.043552,Clouds
135117.510,-0.002779334783554077,-0.004335224628448486,-0.012533485889434814,-0.0005730870179831982,-0.022610196843743324,-0.03614096716046333,0.018393582,57.043552,Clouds
135117.540,-0.0015618689358234406,0.0010357499122619629,-0.010017812252044678,0.020914457738399506,0.024851039052009583,-0.02084745652973652,0.016443593,57.043552,Clouds
135117.570,0.0007828995585441589,0.0034751296043395996,-0.00229036808013916,0.00814814306795597,-0.03582732006907463,-0.004725239705294371,0.0154570965,57.043552,Clouds
135117.600,0.0033972710371017456,0.007527649402618408,0.0019314885139465332,0.006624347530305386,-0.02043340541422367,-0.018340110778808594,0.013703505,57.043552,Clouds
135117.630,0.0008945465087890625,0.004385113716125488,-0.00029391050338745117,-0.03175145760178566,0.012493127956986427,-0.01734965853393078,0.012831789,57.043552,Clouds
135117.659,-0.00026208534836769104,0.000800788402557373,-1.1920928955078125e-07,-0.035974372178316116,-0.005059984512627125,0.005448514129966497,0.012235802,57.043552,Clouds
135117.689,0.0022033266723155975,0.000303804874420166,0.004034519195556641,0.025292307138442993,-0.02355037070810795,-0.015217820182442665,0.011328832,57.043552,Clouds
135117.719,0.002891872078180313,0.0036278367042541504,-0.0010560154914855957,0.021829793229699135,-0.02551664039492607,-0.03483859822154045,0.010498672,57.043552,Clouds
135117.749,-0.0001583099365234375,-0.013510584831237793,0.0015568137168884277,-0.004034016747027636,-0.049734510481357574,-0.017842693254351616,0.012812622,57.043552,Clouds
135117.779,-0.015317179262638092,-0.0019831061363220215,0.005347549915313721,0.045406706631183624,-0.05147230997681618,-0.025979267433285713,0.012368498,57.043552,Clouds
135117.809,-0.01049991324543953,-0.004414081573486328,-0.00013148784637451172,-0.004471368156373501,-0.045827966183423996,-0.05299020931124687,0.01180965,57.043552,Clouds
135117.838,-0.012041382491588593,0.00048291683197021484,0.008199036121368408,-0.03613736107945442,-0.048859551548957825,-0.05628093332052231,0.010333897,57.043552,Clouds
135117.868,-0.004668045789003372,-0.004764199256896973,0.008629083633422852,-0.009405624121427536,-0.06091058626770973,-0.0553894117474556,0.01308749,57.043552,Clouds
135117.898,-0.001933421939611435,0.001199483871459961,0.0068738460540771484,0.005233760457485914,-0.05409007892012596,-0.0610080286860466,0.011881912,57.043552,Clouds
135117.928,0.0037418529391288757,0.006175339221954346,0.007452547550201416,-0.013661228120326996,-0.04568162187933922,-0.06083924323320389,0.015900621,57.043552,Clouds
135117.958,0.004369907081127167,0.003450751304626465,-0.009414076805114746,-0.06190408766269684,-0.05278674140572548,-0.0504477322101593,0.0150620295,57.043552,Clouds
135117.988,0.00814952701330185,0.00524592399597168,-0.00943988561630249,-0.03294900059700012,0.003357967361807823,-0.024031860753893852,0.013944015,57.043552,Clouds
135118.017,0.01434677466750145,0.0035182833671569824,-0.004915952682495117,0.02650827169418335,-0.0037908621598035097,-0.008772865869104862,0.0130646685,57.043552,Clouds
135118.047,0.01655752956867218,0.007832944393157959,-0.003510594367980957,0.013497724197804928,-0.01897285133600235,-0.021943118423223495,0.012312739,57.043552,Clouds
135118.077,0.013312023133039474,0.0052683353424072266,-0.008108258247375488,-0.016178205609321594,0.005799447186291218,-0.007815726101398468,0.011552705,57.043552,Clouds
135118.107,0.008488636463880539,0.005363404750823975,-0.0074863433837890625,-0.003871692344546318,0.02983558550477028,0.01139072421938181,0.011314028,57.043552,Clouds
135118.136,0.004029959440231323,0.0017594099044799805,-0.0035409927368164062,0.02175743132829666,0.002900896593928337,0.024219950661063194,0.012446992,57.043552,Clouds
135118.167,-0.0038154609501361847,9.953975677490234e-05,-0.0034942626953125,0.012471339665353298,0.015796203166246414,0.016526279971003532,0.011636168,57.043552,Clouds