Timestamp,AccelX,AccelY,AccelZ,GyroX,GyroY,GyroZ,AudioLevel,LightLevel,Weather
134944.150,0.012668617069721222,0.00786525011062622,0.01697361469268799,-0.07848843932151794,-0.10239870846271515,-0.15922121703624725,0.16496988,57.043552,Clouds
134944.180,0.0031765662133693695,0.012337684631347656,-0.013260960578918457,-0.0925028845667839,-0.044190414249897,-0.10676697641611099,0.1347298,57.043552,Clouds
134944.210,0.010394144803285599,0.015321195125579834,-0.00670468807220459,-0.00978358369320631,0.07233238220214844,0.017078490927815437,0.12146416,57.043552,Clouds
134944.240,0.014991212636232376,-0.00031822919845581055,-0.009271085262298584,0.0435296930372715,0.08337665349245071,0.08233325928449631,0.11106227,57.043552,Clouds
134944.270,0.003967836499214172,0.006037294864654541,0.007410168647766113,0.012180306017398834,0.028304563835263252,0.06705310940742493,0.09262378,57.043552,Clouds
134944.300,0.008907794952392578,0.009237170219421387,0.01909172534942627,-0.10481494665145874,-0.09212368726730347,0.058455269783735275,0.08407362,57.043552,Clouds
134944.329,-0.0013430304825305939,0.005024135112762451,-0.012004077434539795,-0.24856802821159363,-0.11998973041772842,0.11946966499090195,0.06936161,57.043552,Clouds
134944.359,-0.009228816255927086,0.009989440441131592,-0.014591574668884277,-0.20794950425624847,-0.05040648952126503,0.13796891272068024,0.06301348,57.043552,Clouds
134944.389,-0.009328480809926987,0.0019134879112243652,-0.02144080400466919,-0.06482917815446854,0.0501638799905777,0.11764761805534363,0.057094254,57.043552,Clouds
134944.419,0.005702989175915718,0.005104362964630127,-0.007550358772277832,-0.008609674870967865,-0.04273947700858116,0.07077700644731522,0.047207396,57.043552,Clouds
134944.449,0.0015530604869127274,0.009761989116668701,0.007666647434234619,-0.08913381397724152,-0.02143179066479206,0.0743565633893013,0.086738646,57.043552,Clouds
134944.479,0.004966279491782188,0.005028367042541504,-0.0019151568412780762,-0.3292054533958435,0.007615302689373493,0.1156381368637085,0.07224738,57.043552,Clouds
134944.509,0.010046420618891716,0.004150032997131348,0.027006328105926514,-0.5162504315376282,0.013481543399393559,0.11395514756441116,0.06595699,57.043552,Clouds
134944.538,0.019257215782999992,-0.010603904724121094,0.0147133469581604,-0.643187940120697,-0.2116638869047165,0.07625286281108856,0.06004106,57.043552,Clouds
134944.568,-0.0005323402583599091,-0.014938533306121826,0.033669352531433105,-0.7650015354156494,-0.2545612156391144,0.012214182876050472,0.051553693,57.043552,Clouds
134944.598,-0.0061339703388512135,-0.017288535833358765,-0.0010799765586853027,-0.7745818495750427,-0.21810853481292725,-0.026361213997006416,0.04688404,57.043552,Clouds
134944.628,-0.019840959459543228,-0.010850757360458374,-0.017289698123931885,-0.5763633847236633,-0.15142282843589783,-0.0691024586558342,0.038804937,57.043552,Clouds
134944.658,-0.02451115846633911,0.004064202308654785,-0.01554560661315918,-0.2592162489891052,-0.11008092761039734,-0.06031665951013565,0.035819605,57.043552,Clouds
134944.687,-0.008368091657757759,0.012134730815887451,-0.01632148027420044,-0.02008567377924919,-0.10163576155900955,-0.06950575858354568,0.0331738,57.043552,Clouds
134944.717,0.00411529466509819,0.017125219106674194,-0.013986468315124512,0.07747861742973328,-0.09676992893218994,-0.06219169497489929,0.03263851,57.043552,Clouds
134944.747,0.00394660048186779,0.012203693389892578,-0.020594298839569092,0.15705430507659912,-0.1093941256403923,-0.035495415329933167,0.0314095,57.043552,Clouds
134944.777,-0.006728227250277996,0.009593337774276733,-0.003310680389404297,0.13721910119056702,-0.04490078613162041,-0.005330453626811504,0.02879195,57.043552,Clouds
134944.807,-0.00722985714673996,0.0007038414478302002,0.0047882795333862305,0.06402138620615005,-0.06343329697847366,0.03524697199463844,0.028237294,57.043552,Clouds
134944.837,0.0047386446967720985,-0.0072670578956604,0.012961804866790771,0.04637822136282921,-0.06681599467992783,0.00449479091912508,0.027243674,57.043552,Clouds
134944.866,-0.001412825658917427,-0.007173389196395874,0.004089832305908203,-0.04257802665233612,-0.1423797756433487,-0.05832479149103165,0.0253349,57.043552,Clouds
134944.896,-0.015339294448494911,-0.0041800737380981445,0.009940624237060547,-0.15653042495250702,-0.12099515646696091,-0.07547221332788467,0.025029788,57.043552,Clouds
134944.926,-0.005061717703938484,0.002025216817855835,-0.013452887535095215,-0.11964032799005508,-0.14262549579143524,-0.10273473709821701,0.022994287,57.043552,Clouds
134944.956,-0.023704519495368004,0.0037689208984375,-0.02217632532119751,0.04245884716510773,-0.003249442670494318,-0.1215229257941246,0.021811841,57.043552,Clouds
134944.986,-0.018179694190621376,0.012478083372116089,-0.012221038341522217,0.1330723613500595,0.0020775077864527702,-0.14371545612812042,0.02510381,57.043552,Clouds
134945.016,0.00025316327810287476,0.018527984619140625,-0.0042226314544677734,0.08074461668729782,-0.04722214862704277,-0.1393551081418991,0.026948182,57.043552,Clouds
134945.045,-0.006389779970049858,0.006280750036239624,0.004925787448883057,-0.01820627599954605,-0.06743711978197098,-0.13976366817951202,0.025772067,57.043552,Clouds
134945.075,0.004029793664813042,0.000970005989074707,0.004612922668457031,0.009370045736432076,-0.06576316803693771,-0.12569668889045715,0.027122477,57.043552,Clouds
134945.105,0.011724449694156647,0.001968860626220703,-0.003289937973022461,-0.029345301911234856,-0.07373256981372833,-0.07654226571321487,0.025573296,57.043552,Clouds
134945.134,0.012117169797420502,0.0012035667896270752,0.00017762184143066406,-0.026779456064105034,-0.06867149472236633,-0.049872495234012604,0.02487331,57.043552,Clouds
134945.165,0.0020223483443260193,0.006398260593414307,0.005070149898529053,-0.02274279110133648,-0.04179453104734421,0.003014073707163334,0.023095699,57.043552,Clouds
134945.194,0.00124405138194561,0.011402934789657593,0.0002307891845703125,-0.05882978439331055,-0.04728339985013008,0.07418806850910187,0.022714589,57.043552,Clouds
134945.224,0.008944148197770119,0.00872260332107544,-0.021596431732177734,0.020196065306663513,-0.00921663548797369,0.1567135751247406,0.020872494,57.043552,Clouds
134945.254,0.008111231029033661,0.00973820686340332,-0.013540267944335938,0.15404866635799408,0.062752366065979,0.19102120399475098,0.020349514,57.043552,Clouds
134945.284,0.007666662335395813,0.005113452672958374,0.0061089396476745605,0.14042730629444122,0.012551279738545418,0.18695040047168732,0.019884458,57.043552,Clouds
134945.314,-0.0033169537782669067,-0.003529191017150879,0.0024505257606506348,0.08907411247491837,-0.042641304433345795,0.153295636177063,0.01859696,57.043552,Clouds
134945.344,-0.016386188566684723,0.0011456310749053955,0.0011301636695861816,0.03894888982176781,0.001536903902888298,0.11764615774154663,0.017763358,57.043552,Clouds
134945.373,-0.02384190261363983,0.0032355785369873047,0.00015503168106079102,-0.00011551263742148876,0.036635007709264755,0.10152959078550339,0.025024148,57.043552,Clouds
134945.403,-0.01887243241071701,0.001705557107925415,0.0005134940147399902,-0.03187273442745209,0.027631713077425957,0.03561045229434967,0.023860287,57.043552,Clouds
134945.433,-0.019983813166618347,-0.00018277764320373535,-0.011090278625488281,-0.0301835760474205,0.01002422720193863,-0.014148224145174026,0.06392909,57.043552,Clouds
134945.463,-0.010305974632501602,0.0004436969757080078,-0.011381924152374268,0.09376108646392822,0.06100226193666458,-0.053976695984601974,0.071504444,57.043552,Clouds
134945.493,-0.009192219004034996,0.0016585886478424072,-0.005883574485778809,0.09319860488176346,0.14288724958896637,-0.04269169270992279,0.06750474,57.043552,Clouds
134945.523,-0.0005946233868598938,-0.0023034214973449707,0.01829397678375244,-0.014953400939702988,0.1369154304265976,-0.021852973848581314,0.057430882,57.043552,Clouds
134945.552,0.013239536434412003,-0.009258836507797241,0.016148388385772705,-0.09045615792274475,0.00023025830159895122,-0.06473452597856522,0.054504134,57.043552,Clouds
134945.582,0.006788343191146851,-0.006687074899673462,-0.0008227229118347168,-0.08101879060268402,-0.054793670773506165,-0.11916664987802505,0.050778683,57.043552,Clouds
134945.612,-0.0022678133100271225,0.001112610101699829,0.00403749942779541,-0.10674235969781876,-0.1029006838798523,-0.17947183549404144,0.044315185,57.043552,Clouds
134945.642,-0.0145892184227705,0.007225722074508667,-0.008668184280395508,-0.14354777336120605,-0.09492035955190659,-0.16121014952659607,0.06615793,57.043552,Clouds
134945.672,-0.016391348093748093,0.011761784553527832,-0.02296268939971924,-0.09043770283460617,0.026986267417669296,-0.10261102765798569,0.08882117,57.043552,Clouds
134945.701,-0.008890679106116295,0.015579283237457275,-0.02049100399017334,0.02225477434694767,0.17525972425937653,-0.026695221662521362,0.08697408,57.043552,Clouds
134945.731,0.004168223589658737,0.00827723741531372,0.0020123720169067383,0.02228762023150921,0.16666878759860992,0.013739997521042824,0.08336537,57.043552,Clouds
134945.761,0.019138295203447342,-0.00033792853355407715,0.023095548152923584,0.006141141522675753,-0.011170444078743458,-0.030002955347299576,0.071498044,57.043552,Clouds
134945.791,0.008168460801243782,0.000870823860168457,0.009548664093017578,-0.06739015132188797,-0.09430141746997833,-0.030693288892507553,0.067249924,57.043552,Clouds
134945.820,-0.006448362022638321,-0.005246788263320923,-0.0004761815071105957,-0.08852909505367279,-0.06462244689464569,-0.025332393124699593,0.05846536,57.043552,Clouds
134945.850,-0.013558639213442802,0.002763420343399048,-0.010047197341918945,-0.03209821879863739,-0.02543201856315136,-0.030389828607439995,0.053744294,57.043552,Clouds
134945.880,-0.014071252197027206,0.009173452854156494,-0.01917576789855957,0.035723622888326645,0.021544355899095535,-0.025361953303217888,0.051773753,57.043552,Clouds
134945.910,-0.003983860835433006,0.012491762638092041,-0.015787482261657715,0.08700563758611679,0.03364245221018791,-0.021158862859010696,0.052166216,57.043552,Clouds
134945.940,-0.004330362193286419,0.0022397637367248535,0.00033336877822875977,0.12574359774589539,0.046568386256694794,-0.022397290915250778,0.06735582,57.043552,Clouds
134945.970,0.005529273301362991,-0.004226744174957275,0.013868331909179688,0.07077046483755112,0.027154436334967613,-0.027748994529247284,0.06363439,57.043552,Clouds
134946.000,0.007877398282289505,-0.0035944879055023193,0.024350762367248535,-0.06334960460662842,-0.030166182667016983,-0.032331936061382294,0.06110259,57.043552,Clouds
134946.029,0.0025510089471936226,-0.005715012550354004,0.005979418754577637,-0.12527315318584442,-0.05575232952833176,-0.03282288461923599,0.060763214,57.043552,Clouds
134946.060,-0.009389427490532398,-0.0009083151817321777,-0.01034700870513916,-0.09415794163942337,-0.004494073335081339,-0.025423604995012283,0.054043133,57.043552,Clouds
134946.089,-0.004975559189915657,0.011340826749801636,-0.010740220546722412,-0.0307159423828125,0.0273071750998497,-0.0073234750889241695,0.053953566,57.043552,Clouds
134946.119,-0.0021327221766114235,0.014324367046356201,-0.01326674222946167,0.03183060511946678,0.02952343039214611,0.016866056248545647,0.055893715,57.043552,Clouds
134946.149,0.0025940313935279846,0.01413792371749878,-0.013584673404693604,0.10004278272390366,0.007930240593850613,0.03704541176557541,0.05255427,57.043552,Clouds
134946.178,0.00426175631582737,-2.962350845336914e-05,0.004852712154388428,0.13720551133155823,0.011529805138707161,0.04287968575954437,0.052277092,57.043552,Clouds
134946.209,0.011064497753977776,-0.007641464471817017,0.020274877548217773,0.07181841880083084,-0.027600156143307686,0.03967345878481865,0.096074305,57.043552,Clouds
134946.239,0.0008613681420683861,-0.006039261817932129,0.014686822891235352,-0.06678003072738647,-0.08829526603221893,0.027732733637094498,0.09167249,57.043552,Clouds
134946.268,-0.013368962332606316,-0.006300836801528931,2.104043960571289e-05,-0.11982806771993637,-0.08850010484457016,-0.006597279105335474,0.08948479,57.043552,Clouds
134946.298,-0.01684410683810711,0.002474576234817505,-0.013498902320861816,-0.07869092375040054,-0.022899366915225983,-0.029116787016391754,0.078515545,57.043552,Clouds
134946.328,-0.01774630881845951,0.01494547724723816,-0.019246697425842285,-0.007476230151951313,0.043551839888095856,-0.021492740139365196,0.072980545,57.043552,Clouds
134946.358,-0.0058033522218465805,0.0188521146774292,-0.00969386100769043,0.06785748153924942,0.0616852305829525,0.002601047046482563,0.06803916,57.043552,Clouds
134946.388,0.008268080651760101,0.008344143629074097,-0.0054215192794799805,0.0945364236831665,0.02636186219751835,0.0316796712577343,0.06576224,57.043552,Clouds
134946.418,0.010731007903814316,-0.004203885793685913,0.004855930805206299,0.09821023046970367,-0.010751363821327686,0.041523635387420654,0.06291578,57.043552,Clouds
134946.447,0.008521756157279015,-0.009492218494415283,0.018608927726745605,0.060759373009204865,-0.029817236587405205,0.025213556364178658,0.054339517,57.043552,Clouds
134946.477,0.004840893670916557,-0.004906773567199707,0.013151168823242188,-0.0513489693403244,-0.09050523489713669,0.011690467596054077,0.0494354,57.043552,Clouds
134946.507,-0.008421657606959343,0.0007482767105102539,0.00018590688705444336,-0.09399531036615372,-0.07023210823535919,0.019545555114746094,0.04245852,57.043552,Clouds
134946.537,-0.014382295310497284,0.006148427724838257,-0.018545567989349365,-0.06293290853500366,0.0027715631294995546,0.04859070107340813,0.039875586,57.043552,Clouds
134946.566,-0.011433731764554977,0.011351585388183594,-0.019617438316345215,0.07101166248321533,0.04681387543678284,0.0341084748506546,0.037300333,57.043552,Clouds
134946.596,-0.00045907869935035706,0.012709856033325195,-0.005979776382446289,0.1592428982257843,0.05035503953695297,0.03884339705109596,0.033611014,57.043552,Clouds
134946.626,0.015552960336208344,0.004194676876068115,0.010960757732391357,0.09687788039445877,-0.008166724815964699,0.07312764972448349,0.031389263,57.043552,Clouds
134946.656,0.009736549109220505,-0.005735635757446289,0.0122184157371521,0.019825037568807602,-0.08073137700557709,0.07350388169288635,0.02892575,57.043552,Clouds
134946.686,-0.010884404182434082,-0.006811201572418213,0.003956913948059082,0.003225515829399228,-0.09328441321849823,0.033664971590042114,0.027982946,57.043552,Clouds
134946.716,-0.01636192947626114,-0.001950681209564209,-0.00571674108505249,-0.00713613536208868,-0.06173008307814598,-0.0061767627485096455,0.026761694,57.043552,Clouds
134946.745,-0.017791718244552612,0.004958629608154297,-0.01126188039779663,-0.014461072161793709,0.00591778289526701,-0.017823122441768646,0.033743788,57.043552,Clouds
134946.775,-0.015182603150606155,0.007925719022750854,-0.016082465648651123,0.05640606954693794,0.0588294081389904,-0.012996729463338852,0.04901116,57.043552,Clouds
134946.805,0.0010642614215612411,0.009310245513916016,-0.0028988122940063477,0.12790343165397644,0.07397738844156265,-0.0076379114761948586,0.041580737,57.043552,Clouds
134946.835,0.01221979595720768,0.005352407693862915,0.0026169419288635254,0.1131446436047554,0.005575147457420826,0.01623568870127201,0.038114853,57.043552,Clouds
134946.864,0.01145254634320736,-0.0026529133319854736,0.010532259941101074,0.07506611943244934,-0.03363090381026268,0.021963825449347496,0.035453763,57.043552,Clouds
134946.895,0.0007833149284124374,0.0005376636981964111,0.00970005989074707,0.0179164819419384,-0.0659433975815773,0.022659143432974815,0.03156001,57.043552,Clouds
134946.924,-0.008370980620384216,-0.0013388395309448242,-0.0022035837173461914,-0.008875089697539806,-0.05620061978697777,0.009634735062718391,0.030790055,57.043552,Clouds
134946.954,-0.015382984653115273,0.00048738718032836914,-0.007707059383392334,-0.003403184935450554,-0.008573751896619797,-0.007347889244556427,0.039915655,57.043552,Clouds
134946.984,-0.013722771778702736,0.012254089117050171,-0.01038891077041626,-0.014067397452890873,0.01852269284427166,-0.011358269490301609,0.03975456,57.043552,Clouds
134947.014,-0.009089048951864243,0.018648594617843628,-0.017497777938842773,0.030505675822496414,0.03195027634501457,0.00869134534150362,0.038993306,57.043552,Clouds
134947.044,-0.0015972722321748734,0.007944077253341675,-0.015849411487579346,0.15201205015182495,0.06368324905633926,0.02062666416168213,0.043602064,57.043552,Clouds
134947.073,0.015645645558834076,-0.003340303897857666,0.007386565208435059,0.18541933596134186,0.09241680055856705,0.04585960879921913,0.042428732,57.043552,Clouds
134947.104,0.02479792758822441,-0.01392325758934021,0.03209364414215088,0.10797709226608276,0.015011865645647049,0.07378089427947998,0.039858796,57.043552,Clouds
134947.133,0.01700763963162899,-0.017951101064682007,0.02842581272125244,-0.02960880659520626,-0.04859456047415733,0.05524366348981857,0.0374241,57.043552,Clouds
134947.163,-0.01288965530693531,-0.010617941617965698,0.014593541622161865,-0.15978719294071198,-0.004778480622917414,0.0332980751991272,0.03631184,57.043552,Clouds
134947.192,-0.028693541884422302,0.005383193492889404,-0.011078178882598877,-0.23549439013004303,0.03753039985895157,0.0252792090177536,0.0330066,57.043552,Clouds
134947.222,-0.025149235501885414,0.015635639429092407,-0.028676748275756836,-0.18087410926818848,0.08433083444833755,-0.007515799254179001,0.030500464,57.043552,Clouds
134947.252,-0.02154705673456192,0.012172311544418335,-0.02490609884262085,-0.056138742715120316,0.20288990437984467,0.020700836554169655,0.026915869,57.043552,Clouds
134947.282,0.004573242738842964,0.0010010302066802979,-0.0013277530670166016,0.05929277464747429,0.1884869635105133,0.01376849040389061,0.025052862,57.043552,Clouds
134947.312,0.024284090846776962,-0.0006912648677825928,0.015311360359191895,0.09434152394533157,0.023571912199258804,-0.03788527473807335,0.022988835,57.043552,Clouds
134947.342,0.016671109944581985,0.003973901271820068,0.016170501708984375,0.020141378045082092,-0.07840854674577713,-0.025715932250022888,0.028020695,57.043552,Clouds
134947.372,-0.0076183658093214035,0.0019349753856658936,0.004146754741668701,-0.0832134410738945,-0.07786739617586136,0.0217319093644619,0.026990904,57.043552,Clouds
134947.402,-0.010662643238902092,-0.0036523938179016113,-0.016825556755065918,-0.05453987419605255,-0.08401880413293839,-0.022466255351901054,0.026016986,57.043552,Clouds
134947.431,-0.025976525619626045,0.005200564861297607,-0.015168368816375732,0.059335555881261826,0.020163962617516518,-0.06773586571216583,0.024413591,57.043552,Clouds
134947.461,-0.010864220559597015,0.007764160633087158,-0.005262613296508789,0.08477887511253357,0.07779388874769211,-0.052348654717206955,0.03618353,57.043552,Clouds
134947.491,0.011658892035484314,0.006463289260864258,0.005142092704772949,0.06177883967757225,0.030332142487168312,-0.034328460693359375,0.059663773,57.043552,Clouds
134947.521,0.017801910638809204,-0.0010326504707336426,0.012256443500518799,0.03671794384717941,-0.029700513929128647,-0.02063090167939663,0.05620321,57.043552,Clouds
134947.551,0.0053887739777565,-0.0004197061061859131,0.008805513381958008,-0.03124362975358963,-0.03836860880255699,0.0013498484622687101,0.051681306,57.043552,Clouds
134947.581,-0.005776787176728249,0.0015337765216827393,0.0041231513023376465,-0.07394856214523315,-0.02132333256304264,0.01737804524600506,0.049277294,57.043552,Clouds
134947.610,-0.010752223432064056,-0.0005166232585906982,-0.008349597454071045,-0.09116463363170624,0.022657977417111397,0.014562648721039295,0.048561137,57.043552,Clouds
134947.640,-0.012581760063767433,0.004645735025405884,-0.012287914752960205,-0.05397387221455574,0.058572717010974884,0.015144010074436665,0.045705404,57.043552,Clouds
134947.670,-0.006093727424740791,0.007568567991256714,-0.01583385467529297,0.03473203256726265,0.08912699669599533,0.0037663220427930355,0.04212505,57.043552,Clouds
134947.700,0.0026043783873319626,0.008161306381225586,-0.004124760627746582,0.08568213135004044,0.08028508722782135,0.019673699513077736,0.037885193,57.043552,Clouds
134947.730,0.014274771325290203,0.003423839807510376,0.013660907745361328,0.048708219081163406,-0.005482886452227831,0.031131325289607048,0.036658518,57.043552,Clouds
134947.760,0.014331637881696224,-0.003912985324859619,0.01352083683013916,-0.02018642984330654,-0.09307967871427536,0.017774906009435654,0.034671463,57.043552,Clouds
134947.790,-0.012181553989648819,-0.0028276443481445312,-0.0019637346267700195,-0.05481099337339401,-0.07610168308019638,0.01725718192756176,0.031249426,57.043552,Clouds
134947.819,-0.013311043381690979,-0.0037558674812316895,-0.00934147834777832,-0.03022628091275692,-0.03452954441308975,-0.008635396137833595,0.029871147,57.043552,Clouds
134947.849,-0.012669416144490242,0.0033395886421203613,-0.011823177337646484,0.007769308052957058,0.02581857703626156,-0.02607097662985325,0.03179492,57.043552,Clouds
134947.879,-0.007320350036025047,0.010820537805557251,-0.01025390625,0.019101593643426895,0.056302811950445175,-0.0021370137110352516,0.029751759,57.043552,Clouds
134947.909,0.006200719624757767,0.007871031761169434,-0.004651546478271484,0.07055582106113434,0.03212062641978264,0.0006855810061097145,0.028749865,57.043552,Clouds
134947.939,0.010343236848711967,0.004168897867202759,0.005809485912322998,0.08890523761510849,-0.012704316526651382,0.009223263710737228,0.041932613,57.043552,Clouds
134947.969,0.010271381586790085,-0.001970946788787842,0.014407634735107422,0.024075109511613846,-0.07093673199415207,0.01868893764913082,0.040191233,57.043552,Clouds
134947.998,-0.006155926734209061,-0.002430647611618042,0.003376483917236328,-0.04506079852581024,-0.08369724452495575,0.010949932038784027,0.037516706,57.043552,Clouds
134948.028,-0.014099705964326859,-0.003305107355117798,-0.004809319972991943,-0.04879250004887581,-0.04183491691946983,-0.015998899936676025,0.034807585,57.043552,Clouds
134948.059,-0.012062875553965569,-0.0005036592483520508,-0.008490979671478271,-0.017819002270698547,0.022281648591160774,-0.02931237407028675,0.032552015,57.043552,Clouds
134948.087,-0.0021948255598545074,0.008846104145050049,-0.003226757049560547,-0.012442398816347122,0.05750604346394539,-0.006341570522636175,0.030713765,57.043552,Clouds
134948.117,0.005498433485627174,0.014584869146347046,-0.004277288913726807,0.008977649733424187,0.057438019663095474,0.027023831382393837,0.02971717,57.043552,Clouds
134948.147,0.004553627222776413,0.014905035495758057,-0.002489745616912842,0.07285580784082413,0.05682572349905968,0.0845019593834877,0.04502936,57.043552,Clouds
134948.177,0.013701941817998886,0.002493530511856079,0.0068961381912231445,0.0709829181432724,-0.001369580626487732,0.11912909895181656,0.044300895,57.043552,Clouds
134948.207,0.01372329331934452,-0.0048639774322509766,0.011342227458953857,0.02875179797410965,-0.08892525732517242,0.08539841324090958,0.04245139,57.043552,Clouds
134948.237,-0.017615003511309624,-0.00043070316314697266,0.000523686408996582,-0.02196730673313141,-0.08182154595851898,0.06955660134553909,0.037386026,57.043552,Clouds
134948.267,-0.019487503916025162,-0.007375001907348633,-0.01049119234085083,-0.04149934649467468,0.020422348752617836,0.058249011635780334,0.03603815,57.043552,Clouds
134948.296,-0.017503995448350906,0.0009421706199645996,-0.003374636173248291,0.014183785766363144,0.07362868636846542,0.019984260201454163,0.030818643,57.043552,Clouds
134948.326,-0.00019280798733234406,0.008578747510910034,-0.006773710250854492,0.003578721545636654,0.04993433877825737,-0.005018873605877161,0.028447172,57.043552,Clouds
134948.356,0.004778990522027016,0.013337582349777222,-0.0061800479888916016,0.0343339741230011,0.010226433165371418,0.021803023293614388,0.026237238,57.043552,Clouds
134948.386,0.010163692757487297,0.0006354749202728271,-0.0032005906105041504,0.08631338179111481,0.013326657935976982,0.04761642590165138,0.025024299,57.043552,Clouds
134948.416,0.005163632333278656,-0.005176156759262085,0.009575605392456055,0.09112850576639175,-0.023971524089574814,0.04067203029990196,0.032105356,57.043552,Clouds
134948.446,-0.009526301175355911,-0.0031367838382720947,0.009769797325134277,-0.0032869933638721704,-0.060377638787031174,0.0031358161941170692,0.031006642,57.043552,Clouds
134948.475,-0.015269435942173004,-0.004397720098495483,0.0005979537963867188,-0.07682977616786957,-0.07163381576538086,-0.048458196222782135,0.030263364,57.043552,Clouds
134948.505,-0.014788869768381119,-0.007279813289642334,-0.008374571800231934,-0.03781384974718094,-0.001095617190003395,-0.06814783066511154,0.03370809,57.043552,Clouds
134948.535,-0.004863092675805092,0.004465013742446899,-0.012054443359375,0.05645269528031349,0.06448671221733093,-0.06792401522397995,0.03210726,57.043552,Clouds
134948.565,0.0019123014062643051,0.01780116558074951,-0.008052349090576172,0.08017370104789734,0.058855943381786346,-0.03667077049612999,0.03906471,57.043552,Clouds
134948.595,0.007514676079154015,0.011387944221496582,0.002025425434112549,0.06445050239562988,0.02972446195781231,0.010422089137136936,0.03630832,57.043552,Clouds
134948.625,0.010517947375774384,-0.004952430725097656,0.0035576224327087402,0.06077072024345398,-0.01699957624077797,0.027400227263569832,0.034084823,57.043552,Clouds
134948.654,0.003247210755944252,-0.004097938537597656,0.01365119218826294,0.03193037211894989,-0.03282185271382332,0.005654898006469011,0.0330394,57.043552,Clouds
134948.684,-0.009066587314009666,-0.0012106895446777344,0.0040738582611083984,-0.03907012939453125,-0.049704354256391525,-0.00260680983774364,0.029836567,57.043552,Clouds
134948.714,-0.014026647433638573,-0.0027816295623779297,-0.008056998252868652,-0.05731027573347092,0.006815609522163868,-0.015411367639899254,0.029518543,57.043552,Clouds
134948.744,-0.008834412321448326,0.007682502269744873,-0.0068266987800598145,-0.06568104028701782,0.03989342227578163,-0.012572397477924824,0.027193667,57.043552,Clouds
134948.774,0.004050388932228088,0.010081261396408081,-0.017998039722442627,0.0036137050483375788,0.024786677211523056,-0.0015954653499647975,0.027052378,57.043552,Clouds
134948.804,0.004494696855545044,0.015472859144210815,-0.012669801712036133,0.10508818924427032,0.04888268932700157,0.040652018040418625,0.055056743,57.043552,Clouds
134948.833,0.017774423584342003,0.004301875829696655,0.007243096828460693,0.10725726932287216,0.01861630380153656,0.08937478810548782,0.051682655,57.043552,Clouds
134948.863,0.01584877446293831,-0.009223967790603638,0.021895289421081543,0.05204295367002487,-0.06534717231988907,0.08840309828519821,0.04944274,57.043552,Clouds
134948.893,-0.0017477218061685562,-0.013462215662002563,0.007179915904998779,0.0165886078029871,-0.138453409075737,0.027196094393730164,0.044005673,57.043552,Clouds
134948.923,-0.021943625062704086,-0.0027702748775482178,-0.00172346830368042,-0.0013852502452209592,-0.08719196170568466,-0.014202836900949478,0.040856913,57.043552,Clouds
134948.953,-0.026539329439401627,0.005711585283279419,-0.003627598285675049,-0.0784868597984314,-0.007139964960515499,-0.02634081058204174,0.03779627,57.043552,Clouds
134948.982,-0.008748980239033699,0.0021685361862182617,-0.01699960231781006,-0.07637602090835571,0.008488645777106285,-0.04073411971330643,0.035011295,57.043552,Clouds
134949.012,-0.0066743530333042145,0.008314907550811768,-0.015946030616760254,0.04672478139400482,0.06088763102889061,-0.047792740166187286,0.03401132,57.043552,Clouds
134949.042,0.009823780506849289,0.013395071029663086,0.00045937299728393555,0.08085647970438004,0.05325234681367874,-0.005939253605902195,0.029420374,57.043552,Clouds
134949.072,0.016115404665470123,0.0021381676197052,0.006145000457763672,0.05962051823735237,-0.031141037121415138,0.027662554755806923,0.029192928,57.043552,Clouds
134949.102,0.010754995048046112,-0.005381584167480469,0.011786818504333496,0.02517589181661606,-0.07245974987745285,0.02346763014793396,0.02736303,57.043552,Clouds
134949.131,-0.010886749252676964,-0.0007110536098480225,0.007294058799743652,-0.02041562832891941,-0.08019690960645676,0.01273705530911684,0.030642921,57.043552,Clouds
134949.162,-0.012678023427724838,-0.004438191652297974,-0.004697144031524658,-0.05746571719646454,-0.041812971234321594,-0.01889606937766075,0.04712133,57.043552,Clouds
134949.191,-0.01439778134226799,0.0006414651870727539,-0.007448673248291016,-0.05603739246726036,0.018395869061350822,-0.026111336424946785,0.04528199,57.043552,Clouds
134949.221,-0.003413597121834755,0.006407976150512695,-0.01355886459350586,-0.021761959418654442,0.05214026942849159,-0.02301313914358616,0.043544,57.043552,Clouds
134949.251,-0.00019268691539764404,0.012101799249649048,-0.009587764739990234,0.0653216764330864,0.06736025214195251,0.00393105810508132,0.04197672,57.043552,Clouds
134949.281,0.015263631939888,0.008249014616012573,0.0013710260391235352,0.1046561449766159,0.0108322249725461,0.03558318689465523,0.045468166,57.043552,Clouds
134949.311,0.020426712930202484,-0.00019091367721557617,0.01082301139831543,0.08619242161512375,-0.08622802793979645,0.058305397629737854,0.042999238,57.043552,Clouds
134949.340,-0.0003659091889858246,-0.0026355981826782227,0.008021354675292969,0.009712059050798416,-0.08474463224411011,0.05533771589398384,0.041001424,57.043552,Clouds
134949.370,-0.016706492751836777,-0.0036710798740386963,0.004198610782623291,-0.06223740428686142,-0.057063810527324677,0.03072030283510685,0.038140412,57.043552,Clouds
134949.400,-0.022254329174757004,-0.005801141262054443,-0.0020982027053833008,-0.09700443595647812,-0.011229628697037697,-0.018141912296414375,0.035688635,57.043552,Clouds
134949.430,-0.013966482132673264,0.0006695985794067383,-0.00782918930053711,-0.09146367758512497,0.03995109349489212,-0.05234698951244354,0.031903613,57.043552,Clouds
134949.460,-0.00848548486828804,0.006768226623535156,-0.016890287399291992,-0.006161863449960947,0.06652627140283585,-0.04179796203970909,0.030286493,57.043552,Clouds
134949.490,0.010998738929629326,0.008315026760101318,-0.011464059352874756,0.0845424085855484,0.07336733490228653,-0.017388658598065376,0.027574621,57.043552,Clouds
134949.520,0.01578986458480358,0.0041747987270355225,0.0065572261810302734,0.13173295557498932,0.011733686551451683,0.015171082690358162,0.025704132,57.043552,Clouds
134949.549,0.014612341299653053,-0.0021900832653045654,0.02047330141067505,0.07586789131164551,-0.05477600172162056,0.009168348275125027,0.0341413,57.043552,Clouds
134949.579,-0.008810821920633316,-0.0005335807800292969,0.008979260921478271,-0.05757885053753853,-0.09218356013298035,0.008510814048349857,0.07943537,57.043552,Clouds
134949.609,-0.012768615037202835,-0.0027770400047302246,-0.0003867149353027344,-0.11254357546567917,-0.04456633701920509,-0.005536699667572975,0.073726974,57.043552,Clouds
134949.639,-0.01284864917397499,-0.006281346082687378,-0.008971333503723145,-0.08636601269245148,0.016976043581962585,-0.023030994459986687,0.07247757,57.043552,Clouds
134949.668,-0.007749736309051514,-0.0025130808353424072,-0.010931074619293213,0.016095571219921112,-0.002990493318066001,-0.08718045800924301,0.06423533,57.043552,Clouds
134949.698,-0.001955367624759674,0.012208342552185059,-0.0017837882041931152,0.022154550999403,-0.011068448424339294,-0.10615826398134232,0.06287925,57.043552,Clouds
134949.728,0.0053772032260894775,0.012273013591766357,0.002196371555328369,-0.026759058237075806,0.05656058341264725,0.008710063993930817,0.059360195,57.043552,Clouds
134949.758,0.021357348188757896,-0.002035170793533325,0.0029407143592834473,-0.014091500081121922,0.0025007911026477814,0.04891379550099373,0.059735876,57.043552,Clouds
134949.788,0.008706524968147278,0.0010592937469482422,-0.0009417533874511719,0.04446053504943848,-0.06416254490613937,0.012042881920933723,0.057972524,57.043552,Clouds
134949.818,-0.016767024993896484,0.009094566106796265,-0.0026721954345703125,0.012489833869040012,-0.047390297055244446,0.017197968438267708,0.052598055,57.043552,Clouds
134949.847,-0.01151643693447113,0.0013648271560668945,4.07099723815918e-05,-0.05559523403644562,-0.012212354689836502,0.016535764560103416,0.050267637,57.043552,Clouds
134949.877,-0.008586641401052475,-0.004806578159332275,-0.008138954639434814,-0.026937024667859077,0.015049170702695847,-0.00931597501039505,0.053826604,57.043552,Clouds
134949.907,-0.0074655115604400635,0.002775341272354126,-0.01524430513381958,0.060186516493558884,0.07626862823963165,-0.006363946013152599,0.04981987,57.043552,Clouds
134949.937,0.0063222236931324005,0.008791208267211914,8.58306884765625e-06,0.09085865318775177,0.062274739146232605,0.021481391042470932,0.046648804,57.043552,Clouds
134949.967,0.020969834178686142,0.0028699934482574463,0.0099412202835083,0.0792371854186058,-0.0162904541939497,0.04080743342638016,0.042629167,57.043552,Clouds
134949.997,0.015450261533260345,0.001359105110168457,0.009963512420654297,0.0420026034116745,-0.10866080969572067,0.047812677919864655,0.06098433,57.043552,Clouds
134950.026,-0.001782100647687912,0.0021088719367980957,0.00445026159286499,0.005613958463072777,-0.16731196641921997,0.038697872310876846,0.05326091,57.043552,Clouds
134950.059,-0.019502080976963043,-0.003733605146408081,-0.0060732364654541016,-0.013874278403818607,-0.09458814561367035,0.013606357388198376,0.05048864,57.043552,Clouds
134950.085,-0.02728525549173355,-0.004761338233947754,-0.009523093700408936,0.007835501804947853,0.0592661052942276,0.021560532972216606,0.049001597,57.043552,Clouds
134950.116,-0.011851690709590912,0.0020086169242858887,-0.004867434501647949,0.02987787500023842,0.12931884825229645,0.009342043660581112,0.04707975,57.043552,Clouds
134950.146,-0.00046684592962265015,0.009981662034988403,-0.004091978073120117,0.026255423203110695,0.10564104467630386,0.0004169807943981141,0.04822144,57.043552,Clouds
134950.176,0.00940699502825737,0.008751511573791504,-0.0016747713088989258,0.021625801920890808,0.08050817996263504,0.022018155083060265,0.049810108,57.043552,Clouds
134950.205,0.01571591943502426,0.00038295984268188477,0.008192062377929688,0.03752647340297699,0.027257727459073067,0.05233744904398918,0.04811441,57.043552,Clouds
134950.235,0.01800534501671791,-0.00983041524887085,0.011339008808135986,0.024863390251994133,-0.024333465844392776,0.04788915812969208,0.052570198,57.043552,Clouds
134950.265,-0.006675004959106445,-0.004095315933227539,0.008317708969116211,-0.02874605357646942,-0.04944903776049614,0.017336437478661537,0.05110502,57.043552,Clouds
134950.295,-0.02312074601650238,0.000755012035369873,-0.0043419599533081055,-0.08565632253885269,-0.0382753424346447,-0.014244981110095978,0.049120735,57.043552,Clouds
134950.324,-0.017075464129447937,0.0036092400550842285,-0.013749361038208008,-0.04608280584216118,0.025993486866354942,-0.04496626928448677,0.061943267,57.043552,Clouds
134950.354,-0.008434653282165527,0.006614983081817627,-0.010584890842437744,0.03005572222173214,0.08654110133647919,-0.04090450704097748,0.059181333,57.043552,Clouds
134950.384,0.016487617045640945,0.001457124948501587,-0.0007276535034179688,0.08077995479106903,0.06374472379684448,-0.01399189978837967,0.055441547,57.043552,Clouds
134950.414,0.019831541925668716,0.004140317440032959,0.011672914028167725,0.06127332150936127,0.01928182691335678,0.030265552923083305,0.050728057,57.043552,Clouds
134950.444,0.014495842158794403,-6.443262100219727e-05,0.012975454330444336,0.0064999694004654884,-0.0514657124876976,0.05530240759253502,0.047999054,57.043552,Clouds
134950.474,-0.004488632082939148,-0.0008240938186645508,0.0004628300666809082,-0.026250440627336502,-0.05953684076666832,0.04721029847860336,0.04596817,57.043552,Clouds
134950.504,-0.015026833862066269,-0.0006667971611022949,-0.0037937164306640625,-0.041340503841638565,-0.03809938207268715,0.024133311584591866,0.07539685,57.043552,Clouds
134950.533,-0.016874823719263077,-0.0012943148612976074,-0.008184373378753662,-0.03901372104883194,0.0031493280548602343,-0.0033579787705093622,0.071979105,57.043552,Clouds
134950.563,-0.009072404354810715,0.003198087215423584,-0.006029069423675537,-0.026062767952680588,0.04968700557947159,-0.011672367341816425,0.06265176,57.043552,Clouds
134950.593,0.0026489607989788055,0.008935719728469849,-0.008301138877868652,-0.006100452970713377,0.020447131246328354,-0.01392084639519453,0.060180813,57.043552,Clouds
134950.623,0.0069139376282691956,0.007415860891342163,-0.006840646266937256,0.038574375212192535,0.0032067950814962387,-0.008523133583366871,0.053411487,57.043552,Clouds
134950.653,0.005601625889539719,-0.000992119312286377,0.004946589469909668,0.10176492482423782,0.007705178577452898,0.01132121216505766,0.051836222,57.043552,Clouds
134950.683,-0.001666571944952011,-0.005837678909301758,0.012275278568267822,0.034244172275066376,-0.01985127106308937,-0.00501676369458437,0.047885396,57.043552,Clouds
134950.712,-0.006469409912824631,-0.0002951622009277344,0.011778831481933594,-0.06900480389595032,-0.056154437363147736,-0.02859417535364628,0.04090888,57.043552,Clouds
134950.742,-0.016201764345169067,-0.003889918327331543,-0.003543555736541748,-0.07915007323026657,-0.013803423382341862,-0.046334534883499146,0.037422754,57.043552,Clouds
134950.772,-0.008216943591833115,-0.0007014870643615723,-0.010607421398162842,-0.04187023639678955,0.057243626564741135,-0.04931149631738663,0.03231243,57.043552,Clouds
134950.802,-0.0015420876443386078,0.008478999137878418,-0.007950663566589355,0.002682300517335534,0.03680163994431496,-0.04165903851389885,0.031053333,57.043552,Clouds
134950.832,0.010875284671783447,0.014521539211273193,-0.009987890720367432,0.05944618210196495,0.025551896542310715,-0.019108226522803307,0.029621616,57.043552,Clouds
134950.861,0.010968375951051712,0.008208990097045898,0.0007734298706054688,0.0787568911910057,0.018959011882543564,0.042012184858322144,0.037959643,57.043552,Clouds
134950.891,0.016967561095952988,-0.005480587482452393,0.01549440622329712,0.03567647933959961,-0.047094058245420456,0.0556948184967041,0.05448493,57.043552,Clouds
134950.921,-0.0025243572890758514,-0.009476780891418457,0.008838951587677002,-4.500336945056915e-05,-0.09602189809083939,0.01731468178331852,0.046143223,57.043552,Clouds
134950.951,-0.01850513368844986,-0.005948901176452637,0.00011295080184936523,-0.05040504410862923,-0.06087960675358772,-0.03417430445551872,0.04271763,57.043552,Clouds
134950.980,-0.02019563317298889,-0.0025260448455810547,-0.0048427581787109375,-0.09627794474363327,0.023692211136221886,-0.03613050654530525,0.039023213,57.043552,Clouds
134951.011,-0.00454334169626236,0.0032639503479003906,-0.006056845188140869,-0.057110849767923355,0.055358413606882095,-0.040096357464790344,0.033013243,57.043552,Clouds
134951.041,0.006101362407207489,0.014687985181808472,-0.013299524784088135,0.015113999135792255,0.04638131707906723,-0.024520767852663994,0.030179042,57.043552,Clouds
134951.070,0.004099234938621521,0.01708570122718811,-0.0075874924659729,0.06252215057611465,0.031502462923526764,0.023371469229459763,0.026016656,57.043552,Clouds
134951.100,0.013396266847848892,0.0027748942375183105,0.0064089298248291016,0.07560475915670395,-0.0011994235683232546,0.045843932777643204,0.024091208,57.043552,Clouds
134951.130,0.007808934897184372,-0.006379961967468262,0.01569950580596924,0.01682070642709732,-0.06447732448577881,0.045755334198474884,0.022494243,57.043552,Clouds
134951.160,-0.009761717170476913,-0.007490038871765137,0.003850221633911133,-0.018443237990140915,-0.08195517957210541,0.004834016319364309,0.027944967,57.043552,Clouds
134951.190,-0.020970281213521957,-0.0014710426330566406,-0.006386876106262207,-0.030406098812818527,-0.00626734271645546,-0.024048730731010437,0.046609562,57.043552,Clouds
134951.219,-0.013814546167850494,0.0011072754859924316,-0.0062563419342041016,-0.04066012054681778,0.0277973972260952,-0.03342641144990921,0.044584412,57.043552,Clouds
134951.249,-0.007834382355213165,0.0033533573150634766,-0.01001894474029541,0.012111794203519821,0.05883452668786049,-0.055043403059244156,0.04275356,57.043552,Clouds
134951.279,0.0034276247024536133,0.011524379253387451,-0.006848633289337158,0.058610767126083374,0.06670892238616943,-0.03722023963928223,0.04121342,57.043552,Clouds
134951.309,0.011583123356103897,0.006092190742492676,-0.00047701597213745117,0.06089256331324577,0.0251617431640625,0.005314703565090895,0.039131526,57.043552,Clouds
134951.339,0.012846332043409348,-0.004704117774963379,0.01134943962097168,0.0489547997713089,-0.005562214180827141,0.015069125220179558,0.036668662,57.043552,Clouds
134951.369,0.005195192992687225,-0.0076258182525634766,0.01497584581375122,0.0033705790992826223,-0.03703818842768669,-0.006844670511782169,0.032977127,57.043552,Clouds
134951.398,-0.00205891951918602,-0.004113495349884033,0.006421506404876709,-0.05791184678673744,-0.039671655744314194,-0.01987547241151333,0.03101162,57.043552,Clouds
134951.428,-0.013905622065067291,-0.0043343305587768555,-0.0052980780601501465,-0.09629565477371216,-0.021827926859259605,-0.0461251474916935,0.03028951,57.043552,Clouds
134951.458,-0.019826039671897888,0.005873620510101318,-0.010739326477050781,-0.05116679146885872,0.03478208929300308,-0.06720167398452759,0.04334048,57.043552,Clouds
134951.488,-0.008867904543876648,0.014729142189025879,-0.016648173332214355,0.00012334692291915417,0.13185611367225647,-0.02115519344806671,0.040976536,57.043552,Clouds
134951.518,0.009338945150375366,0.010566771030426025,-0.010464191436767578,0.05826399102807045,0.12677216529846191,0.0226497333496809,0.044423856,57.043552,Clouds
134951.548,0.018045147880911827,0.0030477046966552734,0.00724184513092041,0.10150453448295593,0.02638906054198742,0.027595154941082,0.041867882,57.043552,Clouds
134951.577,0.01498679630458355,-0.0007698535919189453,0.018221259117126465,0.03687157481908798,-0.06029662489891052,0.023652125149965286,0.040683977,57.043552,Clouds
134951.607,-0.004542484879493713,-0.0015218257904052734,0.007136940956115723,-0.04747414216399193,-0.05696135386824608,0.037336140871047974,0.03437503,57.043552,Clouds
134951.637,-0.015895675867795944,-0.007567226886749268,-0.005249619483947754,-0.043805696070194244,-0.01605645753443241,0.015893537551164627,0.03433076,57.043552,Clouds
134951.667,-0.01600753515958786,-0.0008574724197387695,-0.008472084999084473,-0.006794358603656292,0.03311597555875778,-0.018324188888072968,0.03184397,57.043552,Clouds
134951.697,-0.006010141223669052,0.009705424308776855,-0.007106661796569824,-0.001821480575017631,0.05137228965759277,-0.012721586041152477,0.056155883,57.043552,Clouds
134951.727,0.003938179463148117,0.009737789630889893,-0.00978994369506836,0.03104947879910469,0.04097447171807289,0.004960782825946808,0.052750286,57.043552,Clouds
134951.756,0.008710412308573723,0.0023215413093566895,0.002935171127319336,0.06223762407898903,0.009709076955914497,0.01731153018772602,0.049288023,57.043552,Clouds
134951.786,0.012530848383903503,-0.005723536014556885,0.015262842178344727,0.020591039210557938,-0.03935941681265831,0.027946965768933296,0.047300525,57.043552,Clouds
134951.816,0.0019763484597206116,-0.009061157703399658,0.00691908597946167,-0.024335138499736786,-0.07196556776762009,0.01447736844420433,0.039585475,57.043552,Clouds
134951.846,-0.016080036759376526,-0.004460334777832031,-0.004658222198486328,-0.028262753039598465,-0.023940157145261765,-0.010118518956005573,0.03668159,57.043552,Clouds
134951.876,-0.011507343500852585,0.0009846091270446777,-0.0016474127769470215,-0.05182288587093353,0.013757535256445408,-0.028764350339770317,0.03407285,57.043552,Clouds
134951.906,-0.003206787630915642,0.007064521312713623,-0.009115338325500488,-0.04541229084134102,0.013633280992507935,-0.02641592174768448,0.04012295,57.043552,Clouds
134951.935,-0.0016828421503305435,0.014335393905639648,-0.0166434645652771,0.028590284287929535,0.04437192156910896,-0.000624412321485579,0.050486576,57.043552,Clouds
134951.965,0.009734967723488808,0.01169443130493164,-0.0036745071411132812,0.06294097006320953,0.01552861463278532,0.0361735038459301,0.049078308,57.043552,Clouds
134951.995,0.01675105094909668,0.00036644935607910156,0.00953143835067749,0.02374207228422165,-0.05988742783665657,0.05354684963822365,0.04661028,57.043552,Clouds
134952.025,0.0030845236033201218,-0.007739841938018799,0.011288821697235107,0.010542535223066807,-0.06780993193387985,0.03786144405603409,0.043675397,57.043552,Clouds
134952.059,-0.013471964746713638,-0.004552006721496582,0.0024747252464294434,-0.03022833913564682,-0.05235614255070686,0.011918919160962105,0.041267607,57.043552,Clouds
134952.084,-0.017687220126390457,-0.004355430603027344,-0.003924071788787842,-0.05739380419254303,-0.0022066505625844,-0.02145935781300068,0.040358853,57.043552,Clouds
134952.114,-0.009436063468456268,9.292364120483398e-05,-0.00715482234954834,-0.051804084330797195,0.033006828278303146,-0.040586572140455246,0.049372718,57.043552,Clouds
134952.144,0.0016489475965499878,0.008604347705841064,-0.00959920883178711,-5.90435229241848e-06,0.035243064165115356,-0.028539245948195457,0.045728356,57.043552,Clouds
134952.174,0.008684491738677025,0.009219169616699219,-0.00805044174194336,0.044347092509269714,0.023289885371923447,0.00043111201375722885,0.042207137,57.043552,Clouds
134952.204,0.009604005143046379,0.002556145191192627,0.0037433505058288574,0.04689199849963188,-0.01687760464847088,0.026888012886047363,0.03756389,57.043552,Clouds
134952.234,0.008268952369689941,-0.0034804344177246094,0.00958472490310669,-0.0012033770326524973,-0.0681811049580574,0.022166214883327484,0.035541274,57.043552,Clouds
134952.263,-0.005617786198854446,-0.003509223461151123,0.0013622045516967773,-0.016269009560346603,-0.07295121997594833,0.008727841079235077,0.03233486,57.043552,Clouds
134952.293,-0.016264013946056366,-0.0033351778984069824,-0.0031142234802246094,-0.024386420845985413,-2.60911911027506e-05,-0.0033935843966901302,0.031147826,57.043552,Clouds
134952.323,-0.011545933783054352,-0.000245511531829834,-0.004946291446685791,-0.03841336444020271,0.01426494400948286,-0.021433744579553604,0.029746344,57.043552,Clouds
134952.353,-4.233419895172119e-05,0.004210412502288818,-0.009882330894470215,-0.014766169711947441,0.02585481107234955,-0.020774248987436295,0.03142474,57.043552,Clouds
134952.383,0.007112134248018265,0.008559346199035645,-0.0069918036460876465,0.034579940140247345,0.039003241807222366,0.0015483011957257986,0.030530266,57.043552,Clouds
134952.412,0.006963435560464859,0.007236123085021973,0.004235029220581055,0.04991328716278076,0.009669031016528606,0.030251946300268173,0.027284743,57.043552,Clouds
134952.442,0.009946871548891068,-0.0031918883323669434,0.010046899318695068,0.0043718540109694,-0.041670870035886765,0.03841691464185715,0.03622248,57.043552,Clouds
134952.472,-0.0011629275977611542,-0.00927746295928955,0.003651142120361328,-0.019172120839357376,-0.06607094407081604,0.010397110134363174,0.033143718,57.043552,Clouds
134952.502,-0.014483705163002014,-0.005380809307098389,-0.003737151622772217,-0.03984064981341362,-0.0239501241594553,-0.01436655968427658,0.0319261,57.043552,Clouds
134952.532,-0.009904421865940094,0.0004200935363769531,-0.003162384033203125,-0.05515201762318611,0.016026301309466362,-0.02677319198846817,0.02996595,57.043552,Clouds
134952.562,-0.008741538971662521,0.006413161754608154,-0.011322200298309326,-0.025297071784734726,0.04516638442873955,-0.02482130192220211,0.026411872,57.043552,Clouds
134952.591,0.0001993216574192047,0.009094059467315674,-0.011949539184570312,0.022192303091287613,0.052802957594394684,-0.009972906671464443,0.026240055,57.043552,Clouds
134952.621,0.00853990763425827,0.009575575590133667,0.001396477222442627,0.03284884989261627,0.013170651160180569,0.01077706553041935,0.025902582,57.043552,Clouds
134952.651,0.01556476205587387,0.00017189979553222656,0.00411069393157959,0.022242464125156403,-0.055757928639650345,0.03275849297642708,0.032419253,57.043552,Clouds
134952.681,0.005931887775659561,-0.006876587867736816,0.002642214298248291,0.03422094136476517,-0.07491880655288696,0.026982417330145836,0.03218019,57.043552,Clouds
134952.711,-0.013144899159669876,-0.00324171781539917,0.0036458969116210938,-0.008789313957095146,-0.028198683634400368,0.0156424418091774,0.030390695,57.043552,Clouds
134952.741,-0.014685936272144318,-0.006229996681213379,0.0008445978164672852,-0.0632500872015953,-0.010243537835776806,-0.02105255052447319,0.027202396,57.043552,Clouds
134952.770,-0.012917306274175644,-0.003248870372772217,-0.011683106422424316,-0.04577062651515007,0.019387273117899895,-0.052523352205753326,0.026718784,57.043552,Clouds
134952.800,-0.0017898082733154297,0.0094471275806427,-0.009808242321014404,0.008605122566223145,0.06803864240646362,-0.035401035100221634,0.0454491,57.043552,Clouds
134952.830,0.009221967309713364,0.013633131980895996,-0.0013808012008666992,0.013547871261835098,0.04063033312559128,0.005698558874428272,0.043391168,57.043552,Clouds
134952.860,0.018597759306430817,0.0024205446243286133,-0.0002619624137878418,0.0253656767308712,-0.030816758051514626,0.029441192746162415,0.04095687,57.043552,Clouds
134952.890,0.004092548042535782,-0.004609048366546631,-0.0018992424011230469,0.04682247340679169,-0.043325018137693405,0.03575339913368225,0.042748816,57.043552,Clouds
134952.920,-0.007087100297212601,-0.0031995773315429688,0.002694249153137207,0.013174701482057571,-0.02752450481057167,0.021970707923173904,0.040691882,57.043552,Clouds
134952.950,-0.01119299978017807,-0.0020034313201904297,0.004297494888305664,-0.05622721090912819,-0.023874890059232712,-0.005061410833150148,0.03559099,57.043552,Clouds
134952.979,-0.013217322528362274,-0.001929253339767456,-0.0035001635551452637,-0.05493934452533722,0.024773776531219482,-0.02641358971595764,0.03404573,57.043552,Clouds
134953.009,-0.005903806537389755,0.0035020112991333008,-0.00787806510925293,-0.006669415161013603,0.058461301028728485,-0.03117191791534424,0.032445077,57.043552,Clouds
134953.039,0.00560508668422699,0.012153655290603638,-0.0051999688148498535,0.00783778727054596,0.049101054668426514,-0.011794811114668846,0.03107976,57.043552,Clouds
134953.069,0.013023868203163147,0.007372826337814331,-0.00036901235580444336,0.008324733935296535,-0.001972819911316037,0.030115285888314247,0.029020341,57.043552,Clouds
134953.098,0.011384844779968262,-0.001957148313522339,0.002798914909362793,0.03261508047580719,-0.03794444724917412,0.03659484162926674,0.026968036,57.043552,Clouds
134953.128,-0.0021011531352996826,-0.003895401954650879,0.00406569242477417,0.015772363170981407,-0.041991498321294785,0.028815969824790955,0.025540054,57.043552,Clouds
134953.158,-0.012700267136096954,-0.0014944672584533691,-0.00043261051177978516,-0.025464430451393127,-0.027222901582717896,0.006664926186203957,0.023686089,57.043552,Clouds
134953.188,-0.012476753443479538,-0.001787722110748291,-0.00359189510345459,-0.036220237612724304,-0.0019877003505825996,-0.018985094502568245,0.022432929,57.043552,Clouds
134953.218,-0.006928443908691406,-0.00018104910850524902,-0.0017973780632019043,-0.03948363661766052,0.03234480321407318,-0.03130059689283371,0.021832127,57.043552,Clouds
134953.248,-0.000619109719991684,0.004168570041656494,-0.003522336483001709,-0.030565015971660614,0.03788718581199646,-0.02126675471663475,0.061852504,57.043552,Clouds
134953.277,0.008003808557987213,0.0069588422775268555,-0.011453509330749512,0.017999010160565376,0.009792510420084,-0.004952782299369574,0.06105402,57.043552,Clouds
134953.308,0.010415740311145782,0.0065672993659973145,-0.0006458163261413574,0.05902688950300217,-0.004541595932096243,0.024311233311891556,0.058566134,57.043552,Clouds
134953.337,0.005912423133850098,-0.0003056824207305908,0.008972704410552979,0.021766215562820435,-0.03233714401721954,0.04279324412345886,0.05268047,57.043552,Clouds
134953.367,-0.0039933472871780396,-0.005278944969177246,0.0048007965087890625,-0.01770496740937233,-0.04880930483341217,0.021345773711800575,0.051256154,57.043552,Clouds
134953.397,-0.013256862759590149,-0.0037010610103607178,-0.0030919313430786133,-0.01603197120130062,-0.020934170112013817,-0.01115598063915968,0.046245027,57.043552,Clouds
134953.427,-0.012519530951976776,-9.468197822570801e-05,-0.0016411542892456055,-0.027027707546949387,0.033256687223911285,-0.024629613384604454,0.043376666,57.043552,Clouds
134953.457,-0.001639530062675476,0.0003199577331542969,0.0037922263145446777,-0.047125931829214096,0.03878181800246239,-0.02805623784661293,0.04050739,57.043552,Clouds
134953.487,0.005094539374113083,0.005805552005767822,-0.005653023719787598,-0.034801505506038666,-0.006014114711433649,-0.02241787686944008,0.03377585,57.043552,Clouds
134953.516,0.003078702837228775,0.008895248174667358,-0.012878239154815674,0.03623144328594208,-0.0031688681337982416,0.0026294495910406113,0.031539313,57.043552,Clouds
134953.546,0.0039365775883197784,0.007308751344680786,-0.0012412071228027344,0.06704820692539215,0.019962815567851067,0.033958207815885544,0.03851604,57.043552,Clouds
134953.576,0.0057442449033260345,-0.0028526484966278076,0.01062309741973877,0.030141916126012802,-0.031270697712898254,0.032644499093294144,0.038024005,57.043552,Clouds
134953.606,-0.0014591775834560394,-0.009633183479309082,0.0029619336128234863,0.0018604588694870472,-0.04711243510246277,0.001957286149263382,0.039588105,57.043552,Clouds
134953.636,-0.01586729660630226,-0.0024469196796417236,0.0006322264671325684,-0.012946682050824165,0.008002941496670246,-0.015639930963516235,0.03736842,57.043552,Clouds
134953.665,-0.011130262166261673,-7.82310962677002e-05,0.001538991928100586,-0.043574411422014236,0.02323869615793228,-0.043618056923151016,0.03543843,57.043552,Clouds
134953.695,0.002574663609266281,0.004186481237411499,-0.0038983821868896484,-0.04517756775021553,0.008638997562229633,-0.054215941578149796,0.034027193,57.043552,Clouds
134953.725,0.004398316144943237,0.009165436029434204,-0.0035020112991333008,-0.0009391454514116049,0.035494979470968246,-0.017025241628289223,0.031880703,57.043552,Clouds
134953.754,0.006314337253570557,0.009283363819122314,-0.0019315481185913086,0.006676308810710907,0.0014790898421779275,0.023879658430814743,0.030578768,57.043552,Clouds
134953.785,0.007235445082187653,0.005272656679153442,-0.0011856555938720703,0.02344156615436077,-0.0316971056163311,0.025825029239058495,0.027350212,57.043552,Clouds
134953.815,-0.0012320764362812042,-0.0011872053146362305,-0.0011796951293945312,0.03670567274093628,-0.014126292429864407,0.04625052586197853,0.028575731,57.043552,Clouds
134953.844,-0.006191760301589966,-0.006429582834243774,0.00223696231842041,0.014137590304017067,-0.011878736317157745,0.02879713848233223,0.027156513,57.043552,Clouds
134953.874,-0.002682521939277649,-0.003932684659957886,0.00576472282409668,-0.015657557174563408,-0.023014288395643234,-0.01443780679255724,0.025997547,57.043552,Clouds
134953.904,-0.005089998245239258,-0.001593172550201416,-0.002616405487060547,-0.03187867999076843,0.001036340370774269,-0.013252864591777325,0.025407236,57.043552,Clouds
134953.934,-0.004951465874910355,-0.0009659230709075928,-0.00305253267288208,0.0009450896177440882,0.02775469236075878,-0.022601338103413582,0.02201908,57.043552,Clouds
134953.964,0.0024703815579414368,0.005489826202392578,0.004221558570861816,-0.002755972323939204,0.006684544030576944,-0.0213085375726223,0.021595,57.043552,Clouds
134953.994,0.004605889320373535,0.007212311029434204,0.001506507396697998,-0.04227982461452484,-0.004895544610917568,0.00576402060687542,0.042583477,57.043552,Clouds
134954.023,0.002182677388191223,0.0032934248447418213,-0.005853533744812012,-0.0030068187043070793,-0.02530684880912304,0.014172900468111038,0.04075824,57.043552,Clouds
134954.059,-0.0050902776420116425,0.0016765296459197998,-0.003977179527282715,0.039952948689460754,1.1842144886031747e-05,0.013718591071665287,0.03640562,57.043552,Clouds
134954.083,-0.0030973777174949646,0.0006060004234313965,0.0007129907608032227,0.008244930766522884,-0.01082595158368349,0.013813317753374577,0.034520596,57.043552,Clouds
134954.113,-0.0006703846156597137,-0.004230380058288574,0.002192854881286621,-0.006495924666523933,-0.004293921869248152,-0.008477338589727879,0.03190221,57.043552,Clouds