Timestamp,AccelX,AccelY,AccelZ,GyroX,GyroY,GyroZ,AudioLevel,LightLevel,Weather
135013.237,0.0023006554692983627,-0.0025320095010101795,0.0006592273712158203,-0.0006447318010032177,0.002511877566576004,-8.538924157619476e-05,0.18676208,57.043552,Clouds
135013.267,0.0013706553727388382,-0.002946113236248493,-0.001629650592803955,0.0011084056459367275,0.00033647293457761407,-0.0024365258868783712,0.16081166,57.043552,Clouds
135013.297,0.0022269748151302338,-0.001989210955798626,0.00033855438232421875,0.0018671138677746058,0.0005982691654935479,-0.0006373469368554652,0.14472422,57.043552,Clouds
135013.327,0.003714967519044876,-0.002445836318656802,-0.006817996501922607,-0.00026238011196255684,-0.003751360811293125,-0.000394249742385,0.13007441,57.043552,Clouds
135013.356,0.0035455990582704544,-0.0017093061469495296,0.002611875534057617,0.00032162899151444435,-0.000287282164208591,-0.0005978410481475294,0.10776617,57.043552,Clouds
135013.387,0.0005861883983016014,-0.0018224231898784637,-0.0001652836799621582,-0.0019615357741713524,-0.0029790098778903484,0.0007457076571881771,0.09785697,57.043552,Clouds
135013.416,0.0018407637253403664,-0.0022382945753633976,-0.0016908645629882812,0.0011272903066128492,-0.00044968866859562695,-0.0017146671889349818,0.08440833,57.043552,Clouds
135013.446,0.004074272699654102,-0.0014486860018223524,-0.001416325569152832,0.0004652405623346567,0.0003769947506953031,0.00022367271594703197,0.08236485,57.043552,Clouds
135013.476,0.0023447852581739426,-0.0023885879199951887,-0.00014954805374145508,0.0035971777979284525,9.641356882639229e-05,-0.00032901635859161615,0.07665712,57.043552,Clouds
135013.506,-0.0007478874176740646,-0.0022495584562420845,-0.0011110901832580566,-0.00126805086620152,-0.0012780127581208944,-0.0011704904027283192,0.06816728,57.043552,Clouds
135013.537,0.002610933966934681,-0.0015727377030998468,-0.000851750373840332,-0.001906605320982635,-0.0018454411765560508,-0.0027282899245619774,0.06315266,57.043552,Clouds
135013.565,0.003222907893359661,-0.001827829983085394,0.0002468228340148926,0.0005833136383444071,6.764879799447954e-05,0.0012959141749888659,0.054294832,57.043552,Clouds
135013.595,0.0015827231109142303,-0.0028199569787830114,-0.0009127259254455566,-0.0020069056190550327,-0.0029476534109562635,-0.0017537910025566816,0.04930031,57.043552,Clouds
135013.625,0.001408715732395649,-0.002950177760794759,0.0009639263153076172,0.0005772951990365982,-0.0003708166186697781,0.001087736920453608,0.045728706,57.043552,Clouds
135013.656,0.0035792021080851555,-0.0028223851695656776,-0.0038884878158569336,-0.0026983406860381365,-0.00021141886827535927,-0.001021561212837696,0.046416663,57.043552,Clouds
135013.685,0.0036538969725370407,-0.001173835713416338,0.003405630588531494,-0.0031717373058199883,-0.0017154680099338293,-0.001646672491915524,0.045265935,57.043552,Clouds
135013.715,4.725344479084015e-05,-0.0019359234720468521,0.002078235149383545,-0.0017249290831387043,0.0019112826557829976,0.0016745890025049448,0.044076707,57.043552,Clouds
135013.745,0.0007357485592365265,-0.0018145968206226826,0.00032341480255126953,-0.0005133335944265127,0.0004016397288069129,-0.00017283629858866334,0.042167198,57.043552,Clouds
135013.774,0.0037779882550239563,-0.002672133967280388,-0.0009585022926330566,-0.0005651458632200956,-0.0008707168744876981,0.0010121844243258238,0.052804932,57.043552,Clouds
135013.804,0.002552616409957409,-0.002480458002537489,0.0020929574966430664,0.0014994340017437935,0.00038699584547430277,4.0897284634411335e-06,0.06218316,57.043552,Clouds
135013.834,-0.0002045975998044014,-0.0022811901289969683,-0.000440061092376709,0.0015837105456739664,0.0008365925750695169,-2.17095366679132e-05,0.059155785,57.043552,Clouds
135013.864,0.001264902763068676,-0.002441667951643467,-0.0001806020736694336,0.001827141037210822,0.00043661973904818296,0.0023547462187707424,0.052666303,57.043552,Clouds
135013.894,0.0037326011806726456,-0.0013505388051271439,7.849931716918945e-05,0.002006769645959139,0.0013183578848838806,-0.00048093433724716306,0.051057626,57.043552,Clouds
135013.924,0.000748123973608017,-0.0027992341201752424,-0.0009438395500183105,-0.003418567357584834,0.0011636404087767005,0.00017458980437368155,0.048958898,57.043552,Clouds
135013.953,-0.00020191166549921036,-0.0039168065413832664,-0.0012794137001037598,0.0014213141985237598,-0.0004720979486592114,0.0002589633222669363,0.06506066,57.043552,Clouds
135013.983,0.002266054041683674,-0.0021781488321721554,9.393692016601562e-05,-0.0005926431622356176,-0.0015615274896845222,-0.000575750193092972,0.06424311,57.043552,Clouds
135014.013,0.0024234801530838013,-0.0023626242764294147,0.0008416175842285156,-0.0023936203215271235,-0.0013734436361119151,0.0013678853865712881,0.10728163,57.043552,Clouds
135014.043,0.0012304671108722687,-0.002492097206413746,0.0019248127937316895,0.0007848846726119518,0.0004405879881232977,0.0009233970195055008,0.10365632,57.043552,Clouds
135014.072,0.0017981929704546928,-0.003256979864090681,-0.000729978084564209,0.002500839065760374,-0.0010207812301814556,0.00033841788535937667,0.09921749,57.043552,Clouds
135014.102,0.003716212697327137,-0.002426282735541463,0.0008720159530639648,0.0001969828736037016,0.002541133901104331,0.0006396826356649399,0.09379705,57.043552,Clouds
135014.132,0.0011605611070990562,-0.0026035176124423742,0.0007957816123962402,-0.0025344006717205048,0.00031500685145147145,0.00014684908092021942,0.08866919,57.043552,Clouds
135014.162,0.001076769083738327,-0.00241095176897943,-0.0015082955360412598,-0.0011687646619975567,-0.0002934167569037527,0.0001907456899061799,0.08309757,57.043552,Clouds
135014.192,0.002224310301244259,-0.0014318316243588924,0.00027692317962646484,0.0006840433925390244,-3.767669841181487e-05,0.0018923255847766995,0.20122938,57.043552,Clouds
135014.222,0.0022012414410710335,-0.0015937748830765486,0.0015583038330078125,0.00047740829177200794,0.0006344416178762913,-0.00041235570097342134,0.19359949,57.043552,Clouds
135014.252,0.0013114465400576591,-0.0014472310431301594,7.802248001098633e-05,0.0015636158641427755,0.0019036093726754189,-0.0005425339913927019,0.16838245,57.043552,Clouds
135014.281,0.0011368785053491592,-0.002805484924465418,0.0009781122207641602,-0.0015916957054287195,0.0025198664516210556,0.00043390344944782555,0.15600206,57.043552,Clouds
135014.311,0.0025975555181503296,-0.0028932641725987196,-0.001920938491821289,-0.000396079383790493,0.000503151270095259,0.0006315046921372414,0.13276465,57.043552,Clouds
135014.341,0.0039782440289855,-0.0023295392747968435,-0.00045567750930786133,-0.003716748906299472,0.0005113246152177453,-0.002675723284482956,0.12343306,57.043552,Clouds
135014.371,0.0010110260918736458,-0.002470944309607148,-0.00024187564849853516,-0.0035726723726838827,0.0006421096622943878,-0.002067876048386097,0.11843089,57.043552,Clouds
135014.401,0.0017689485102891922,-0.0016466397792100906,0.0012992620468139648,-0.00042727869004011154,0.0014058041851967573,-0.0018050638027489185,0.10894911,57.043552,Clouds
135014.430,0.002540191635489464,-0.0014706768561154604,-0.0006540417671203613,-0.000883110798895359,-0.0005947492318227887,-0.0009162796195596457,0.10599264,57.043552,Clouds
135014.460,0.0023212237283587456,-0.0022376810666173697,-0.00010484457015991211,0.0024706334806978703,0.001992183970287442,-0.0002902316045947373,0.12279808,57.043552,Clouds
135014.490,0.0011316919699311256,-0.002812065649777651,-0.00012040138244628906,0.001215839060023427,0.0035023146774619818,-4.636135417968035e-05,0.12023484,57.043552,Clouds
135014.520,0.0018303664401173592,-0.0029002344235777855,-0.00048667192459106445,-0.003575619775801897,0.0014297165907919407,0.002066058339551091,0.11389611,57.043552,Clouds
135014.550,0.0020381351932883263,-0.0020479289814829826,-0.0008529424667358398,-0.0015632349532097578,0.0015831378987058997,-0.00247421907261014,0.16109547,57.043552,Clouds
135014.579,0.0020275451242923737,-0.00209940318018198,0.0008099675178527832,0.0005810789298266172,0.0035376010928303003,-4.963786341249943e-05,0.15390077,57.043552,Clouds
135014.609,0.001720355823636055,-0.0026184339076280594,-0.001463770866394043,0.0011607217602431774,-0.0008799258503131568,0.0006146221421658993,0.1364606,57.043552,Clouds
135014.639,0.001880386844277382,-0.0021626257803291082,0.0005352497100830078,0.0016263674478977919,0.0023827471304684877,-0.0006286798161454499,0.12667096,57.043552,Clouds
135014.669,0.0018336009234189987,-0.0019019627943634987,-0.00016683340072631836,-0.0034541066270321608,0.0019551164004951715,-0.0007615485228598118,0.11777695,57.043552,Clouds
135014.699,0.0011053988710045815,-0.0019036098383367062,-7.545948028564453e-05,0.0031680441461503506,-0.0018107084324583411,0.0012947358191013336,0.10478585,57.043552,Clouds
135014.729,0.0018471674993634224,-0.0025439169257879257,0.0003517270088195801,0.00013334862887859344,0.001153003890067339,-0.0016597517533227801,0.099449225,57.043552,Clouds
135014.759,0.0023335041478276253,-0.0022321869619190693,-0.0006555318832397461,0.002262622583657503,-0.001174861448816955,-0.0008111013448797166,0.10733034,57.043552,Clouds
135014.788,0.0020490093156695366,-0.002403330523520708,-0.0001518726348876953,0.0026329192332923412,-0.0017505341675132513,-0.0004048122209496796,0.104895495,57.043552,Clouds
135014.818,0.0014638416469097137,-0.0021863465663045645,0.00012260675430297852,0.0023830588907003403,0.0004341017338447273,0.00033121302840299904,0.101824924,57.043552,Clouds
135014.848,0.0017064791172742844,-0.002209889469668269,-0.00013703107833862305,-0.00146463792771101,-0.001499465899541974,-0.0003046913770958781,0.09388479,57.043552,Clouds
135014.878,0.000844818539917469,-0.002139063784852624,-0.0006253719329833984,0.0011048889718949795,-0.0010388497030362487,0.00046612939331680536,0.08926326,57.043552,Clouds
135014.907,0.0023644668981432915,-0.002918956568464637,-0.002059340476989746,-0.00019539473578333855,-0.002549866447225213,0.00015788478776812553,0.08398207,57.043552,Clouds
135014.937,0.0015903394669294357,-0.0023038655053824186,6.16312026977539e-05,-0.0030537117272615433,0.0021439690608531237,0.001283619087189436,0.08192366,57.043552,Clouds
135014.967,0.000582604669034481,-0.0019034051802009344,-0.0017238259315490723,0.0005509431939572096,-0.0006718942895531654,0.0011446356074884534,0.077756435,57.043552,Clouds
135014.997,0.00228089839220047,-0.0019095782190561295,-4.565715789794922e-05,0.0010514287278056145,0.000396435585571453,0.0007540071383118629,0.07073726,57.043552,Clouds
135015.027,0.0019343793392181396,-0.002741496078670025,0.0003204345703125,-0.0035384343937039375,-0.001661526272073388,0.00013502652291208506,0.0682301,57.043552,Clouds
135015.057,0.0007013138383626938,-0.0022533985320478678,0.0014040470123291016,-0.0008277907036244869,-0.0006652903975918889,-0.00239357422105968,0.06348719,57.043552,Clouds
135015.086,0.002371476963162422,-0.0018049960490316153,0.00024431943893432617,-0.0019337339326739311,-0.0007524774991907179,-0.0012246861588209867,0.0631801,57.043552,Clouds
135015.116,0.0015155700966715813,-0.0020178998820483685,0.00041240453720092773,-0.0014253513654693961,-0.0011415043845772743,-0.0019490497652441263,0.05983606,57.043552,Clouds
135015.147,-0.0001657344400882721,-0.0024630334228277206,-0.0009151101112365723,7.710768841207027e-05,-0.0028660281095653772,-0.0003266718704253435,0.053607244,57.043552,Clouds
135015.176,0.0029627932235598564,-0.0017432025633752346,-0.0012965202331542969,0.003255707211792469,0.00016629254969302565,0.00033571815583854914,0.066008374,57.043552,Clouds
135015.206,0.003337077796459198,-0.0020907490979880095,9.232759475708008e-05,0.0022187489084899426,0.0007698066183365881,-0.0014074065256863832,0.058661185,57.043552,Clouds
135015.236,-0.00013976451009511948,-0.0028895563445985317,-0.0019983649253845215,0.001201034290716052,0.0008306802483275533,-0.0007381499162875116,0.05402971,57.043552,Clouds
135015.265,0.0003299219533801079,-0.002399349119514227,9.22083854675293e-05,0.003486976493149996,-0.0003141369961667806,0.0008125310414470732,0.048984464,57.043552,Clouds
135015.295,0.005324887111783028,-0.0007509784772992134,0.00047385692596435547,0.0003985529765486717,-0.002115262672305107,0.000980991404503584,0.04333317,57.043552,Clouds
135015.325,0.00257819052785635,-0.0017921889666467905,-0.0013417601585388184,-0.002454570960253477,-0.002152580302208662,-0.0013304936001077294,0.039856073,57.043552,Clouds
135015.355,-0.0012656906619668007,-0.0022659432142972946,0.0015424489974975586,-0.0013233027420938015,-0.0026384033262729645,-0.0003222264931537211,0.033393446,57.043552,Clouds
135015.385,0.0013388078659772873,-0.0025415895506739616,-0.000883638858795166,-0.0005490549374371767,-0.0015933343674987555,-0.0010390962706878781,0.03200448,57.043552,Clouds
135015.415,0.005066690966486931,-0.0023650203365832567,-0.0012344717979431152,0.0025665126740932465,0.0015121186152100563,-0.0018082321621477604,0.04001569,57.043552,Clouds
135015.445,0.0006468342617154121,-0.0027887183241546154,-5.97834587097168e-05,-0.0027249844279140234,0.0010617476655170321,-0.002248683013021946,0.03455947,57.043552,Clouds
135015.474,-0.0006072567775845528,-0.0028568117413669825,-0.0002579689025878906,-0.0017476265784353018,-0.000783344148658216,-0.0003703299444168806,0.032244332,57.043552,Clouds
135015.504,0.0029102321714162827,-0.002000977983698249,-0.00036460161209106445,-0.0013054742012172937,0.002228325931355357,0.002142221201211214,0.028747348,57.043552,Clouds
135015.534,0.00181487575173378,-0.0021234718151390553,-0.0007766485214233398,0.002699668752029538,-0.0001216342207044363,-0.0026895152404904366,0.027708126,57.043552,Clouds
135015.564,9.757094085216522e-05,-0.0017941489350050688,0.000764310359954834,-0.0010463865473866463,-0.002106878673657775,-0.002161605516448617,0.026474984,57.043552,Clouds
135015.594,0.002122071571648121,-0.0017736244481056929,-0.000593721866607666,-0.0006932017859071493,0.0012265185359865427,0.000751270679756999,0.036353923,57.043552,Clouds
135015.624,0.002541622146964073,-0.0019047008827328682,1.6629695892333984e-05,-0.0019423512276262045,0.0019969020504504442,0.0005225111381150782,0.03530303,57.043552,Clouds
135015.653,0.0016938857734203339,-0.0027379263192415237,0.0004283785820007324,-0.0020305716898292303,-0.0004285905451979488,-0.0006169953267090023,0.049910825,57.043552,Clouds
135015.683,0.0022734738886356354,-0.0028719939291477203,0.0001080632209777832,0.0012037712149322033,0.0023141608107835054,-0.0017861442174762487,0.045978405,57.043552,Clouds
135015.713,0.00292994175106287,-0.0020918503869324923,0.0008098483085632324,0.0008975935634225607,-0.0004091690934728831,0.0023340568877756596,0.043832052,57.043552,Clouds
135015.743,0.0013108272105455399,-0.001862014178186655,-0.001067042350769043,-8.07703472673893e-05,-0.0004604379937518388,-0.0018630919512361288,0.039003775,57.043552,Clouds
135015.773,0.00039216969162225723,-0.0033373974729329348,-0.004332602024078369,0.0019488688558340073,0.00031810649670660496,-0.0007598858792334795,0.035264775,57.043552,Clouds
135015.803,0.002688889391720295,-0.0025460917968302965,-0.00041115283966064453,-0.0006717375945299864,0.0016299955314025283,0.00024168589152395725,0.032449994,57.043552,Clouds
135015.832,0.0037107542157173157,-0.0013162856921553612,0.00019925832748413086,-0.0006499816663563251,0.0015152681153267622,0.00042248069075867534,0.041582484,57.043552,Clouds
135015.862,-0.0005444027483463287,-0.002125827595591545,-0.0009607076644897461,-3.323843702673912e-05,-2.9925406124675646e-05,-0.0006672285962849855,0.040996786,57.043552,Clouds
135015.892,0.000696948729455471,-0.002570402342826128,0.0011143088340759277,0.0009565600194036961,0.0016326573677361012,0.0015334619674831629,0.06536838,57.043552,Clouds
135015.922,0.004594576545059681,-0.0014249018859118223,0.0016633868217468262,-0.0002525204326957464,0.0011477761436253786,-0.00012980378232896328,0.062327746,57.043552,Clouds
135015.952,-0.0001536710187792778,-0.002401605248451233,-0.002166450023651123,-0.0031501275952905416,0.000497957575134933,0.0013798747677356005,0.058773942,57.043552,Clouds
135015.981,-0.0010701408609747887,-0.004097947385162115,-0.0012357831001281738,0.001289095962420106,-0.001383437542244792,0.0002303245710209012,0.053655237,57.043552,Clouds
135016.011,0.0036558248102664948,-0.002424373058602214,3.063678741455078e-05,0.00281339674256742,-0.0005590412183664739,0.001559284864924848,0.052101262,57.043552,Clouds
135016.041,0.0032538222149014473,-0.000934218754991889,-0.0011440515518188477,-0.00036363699473440647,-0.0006316557992249727,1.648254692554474e-05,0.047087092,57.043552,Clouds
135016.070,-0.0009383438155055046,-0.002196615096181631,0.0020145177841186523,0.0016403133049607277,0.0005221898900344968,-0.0009673123713582754,0.045538664,57.043552,Clouds
135016.100,0.0010021338239312172,-0.0024106043856590986,7.647275924682617e-05,-0.0009882769081741571,-0.0006780176190659404,2.8494629077613354e-05,0.04308149,57.043552,Clouds
135016.130,0.005339994095265865,-0.0011057262308895588,0.0011138916015625,0.0008245084900408983,0.0020699603483080864,-0.0015906518092378974,0.037452295,57.043552,Clouds
135016.160,0.0007916372269392014,-0.0021199476905167103,3.0040740966796875e-05,-0.004316289909183979,0.0011716906446963549,-0.0006310397293418646,0.03428037,57.043552,Clouds
135016.190,-0.0020441757515072823,-0.004128548316657543,0.00024366378784179688,0.001436903839930892,0.0010130477603524923,0.0026500895619392395,0.031155754,57.043552,Clouds
135016.220,0.0025065848603844643,-0.0018659420311450958,0.0001824498176574707,-0.0009867055341601372,0.00038146867882460356,-0.0018701166845858097,0.029626016,57.043552,Clouds
135016.250,0.005207628943026066,-0.001137773273512721,-0.0004584789276123047,0.0005184614565223455,0.0015159192262217402,-0.0003167170216329396,0.029160718,57.043552,Clouds
135016.279,-0.0002896692603826523,-0.001855966867879033,0.0005485415458679199,-8.932291530072689e-05,0.0006497809663414955,-4.574743798002601e-05,0.06987997,57.043552,Clouds
135016.309,-0.0020403070375323296,-0.0029381716158241034,0.0002582073211669922,0.0019964776001870632,0.00015058991266414523,-0.0017850189469754696,0.068253405,57.043552,Clouds
135016.339,0.003902479074895382,-0.001854464178904891,-0.0017410516738891602,-0.0007465551607310772,0.00032328450470231473,-0.0017050643218681216,0.06051526,57.043552,Clouds
135016.369,0.0028246641159057617,-0.0011166087351739407,-3.2067298889160156e-05,0.0008953304495662451,-0.0006955381250008941,-0.00041292846435680985,0.05993273,57.043552,Clouds
135016.399,-0.0013053342700004578,-0.003600169438868761,-0.00027620792388916016,0.002767559140920639,-0.000283367553493008,-0.002891449723392725,0.056590136,57.043552,Clouds
135016.429,0.0012642228975892067,-0.0018429281190037727,-0.0014208555221557617,0.0018944053445011377,-0.0007456694729626179,-0.0008593011880293489,0.05035273,57.043552,Clouds
135016.459,0.0034888973459601402,-0.0032632146030664444,-0.0006426572799682617,0.001707534771412611,0.0023179948329925537,0.0007538078352808952,0.047076494,57.043552,Clouds
135016.488,0.0012973174452781677,-0.0025918621104210615,0.002942800521850586,-0.003114482155069709,0.0013461913913488388,-6.18775375187397e-05,0.04338288,57.043552,Clouds
135016.518,-0.0016831308603286743,-0.002696949290111661,-0.00036841630935668945,0.00038557243533432484,-0.0022235303185880184,-0.001597653841599822,0.042096872,57.043552,Clouds
135016.548,0.0024564936757087708,-0.001518602715805173,0.00028765201568603516,-0.0012237837072461843,-0.0024971491657197475,0.0009249303839169443,0.039588496,57.043552,Clouds
135016.577,0.0021396158263087273,-0.0016588822472840548,-0.0008718967437744141,-0.00180131068918854,-0.0008126200409606099,-0.0003322006086818874,0.035380326,57.043552,Clouds
135016.608,0.0010004108771681786,-0.0030214826110750437,-0.0017719268798828125,-0.002070693764835596,-0.002414564834907651,0.0003586133534554392,0.034763224,57.043552,Clouds
135016.638,0.00031890813261270523,-0.002603647531941533,-0.0008413195610046387,-0.003935633227229118,-0.0022424645721912384,0.0008425618871115148,0.056108166,57.043552,Clouds
135016.667,0.0026442967355251312,-0.0021020262502133846,-0.0010091662406921387,0.0007252276409417391,-0.0023146518506109715,-0.0003071134560741484,0.05317382,57.043552,Clouds
135016.697,0.0016069067642092705,-0.0021045629400759935,0.0008372664451599121,0.0011982459109276533,0.0007695136591792107,0.0006372656207531691,0.04921587,57.043552,Clouds
135016.727,-8.457992225885391e-05,-0.0027428106404840946,0.0004709959030151367,0.001006965059787035,0.0002620756276883185,-0.0006534283165819943,0.041458223,57.043552,Clouds
135016.757,0.0016072122380137444,-0.002704589394852519,-0.0016194581985473633,0.0004627250600606203,-0.0005887751467525959,-0.0019168321741744876,0.038085226,57.043552,Clouds
135016.787,0.0034765983000397682,-0.0014328525867313147,-0.0007648468017578125,-0.0023200646974146366,-0.0005187857314012945,-0.0015342708211392164,0.03365613,57.043552,Clouds
135016.816,0.0005130106583237648,-0.002880112500861287,0.0007458925247192383,-0.0012488970533013344,3.855230170302093e-05,-0.0010092018637806177,0.031741664,57.043552,Clouds
135016.846,3.623496741056442e-05,-0.0025319198612123728,-0.0007495284080505371,-0.0003055655397474766,0.00018794700736179948,-0.00046600523637607694,0.029472217,57.043552,Clouds
135016.876,0.003068307414650917,-0.002059896942228079,-0.0007343292236328125,-0.0019745733588933945,-0.0013433542335405946,-0.0018368891905993223,0.025462033,57.043552,Clouds
135016.906,0.0025697238743305206,-0.002018002327531576,-0.0008259415626525879,-0.0011967001482844353,-0.0010643036803230643,0.0007807168294675648,0.023611335,57.043552,Clouds
135016.936,5.7427212595939636e-05,-0.0019407710060477257,0.0009743571281433105,0.001630798913538456,0.00033632939448580146,0.002246738178655505,0.020520633,57.043552,Clouds
135016.966,0.001460108906030655,-0.0021101112943142653,8.916854858398438e-05,-0.0010137897916138172,-0.0008538572583347559,0.0016018170863389969,0.019671097,57.043552,Clouds
135016.996,0.0024460358545184135,-0.0018820699770003557,-0.0012230873107910156,0.0014194110408425331,-0.00023941714607644826,-0.0008045830181799829,0.018347273,57.043552,Clouds
135017.025,0.002163829281926155,-0.0016760812141001225,-0.00013953447341918945,0.0029000621289014816,-0.0011446482967585325,0.001290166168473661,0.02803672,57.043552,Clouds
135017.055,0.0008349446579813957,-0.0026108892634510994,0.001096189022064209,0.0006319461390376091,0.0013040124904364347,0.0012538670562207699,0.026977994,57.043552,Clouds
135017.085,0.0009864522144198418,-0.002283682581037283,-0.0008722543716430664,-0.001374770887196064,0.0010673068463802338,-0.0008319614571519196,0.035539575,57.043552,Clouds
135017.115,0.0032731611281633377,-0.002368794521316886,0.0006385445594787598,-0.00038789957761764526,-0.0015482790768146515,0.0010406868532299995,0.034536626,57.043552,Clouds
135017.148,0.00157236959785223,-0.001799043733626604,-0.0007651448249816895,-0.0034453992266207933,0.0008258804446086287,0.0020911642350256443,0.03266501,57.043552,Clouds
135017.175,0.0003035077825188637,-0.003314548870548606,-0.00036841630935668945,0.001922626979649067,0.00016361910093110055,-0.000726620783098042,0.031955935,57.043552,Clouds
135017.205,0.001432015560567379,-0.0025038595777004957,0.0014015436172485352,-0.00021964102052152157,-4.6121309424052015e-05,0.001654168707318604,0.03326019,57.043552,Clouds
135017.234,0.002796911634504795,-0.0013659549877047539,-0.0009025931358337402,0.0008377376943826675,0.0013194151688367128,0.0008169997599907219,0.031329747,57.043552,Clouds
135017.264,0.0005088252946734428,-0.0031658674124628305,-0.0002772808074951172,0.0006312830373644829,-0.00013280448911245912,-0.0017821590881794691,0.030659394,57.043552,Clouds
135017.294,-7.460638880729675e-05,-0.004629930481314659,0.004880189895629883,-0.00029819575138390064,0.0013846266083419323,0.0007679907139390707,0.040089097,57.043552,Clouds
135017.324,0.0022172797471284866,-0.0013149091973900795,5.841255187988281e-05,-0.0007770927622914314,0.0011078824754804373,-0.0010193379130214453,0.06848171,57.043552,Clouds
135017.353,0.003636334091424942,-0.0017912844195961952,-0.0008574724197387695,-0.005340962670743465,0.0024652881547808647,8.503638673573732e-05,0.10643091,57.043552,Clouds
135017.383,0.001383327879011631,-0.00371314468793571,0.0019806623458862305,-0.000155583955347538,-0.000262507819570601,0.0008703197818249464,0.09732518,57.043552,Clouds
135017.413,0.0006884215399622917,-0.0029526909347623587,0.0005463957786560059,0.000765681266784668,0.0014940818073228002,-0.00134927942417562,0.09096395,57.043552,Clouds
135017.443,0.0024536531418561935,-0.002194272354245186,-0.001757800579071045,0.003091199789196253,0.0006445406470447779,-0.001740051549859345,0.08588556,57.043552,Clouds
135017.473,0.0014616195112466812,-0.0015252563171088696,0.0008512139320373535,-0.003033836605027318,0.0008263533236458898,-0.00033223681384697556,0.07422047,57.043552,Clouds
135017.502,-2.5841407477855682e-05,-0.002973492257297039,0.003536701202392578,-0.0031957041937857866,0.0032440517097711563,0.002023954875767231,0.069535926,57.043552,Clouds
135017.532,0.000629231333732605,-0.001454692566767335,0.00034743547439575195,-0.0026140445843338966,7.353280670940876e-05,-0.0010380360763520002,0.060893297,57.043552,Clouds
135017.562,0.002182229422032833,-0.0022714913357049227,0.00046950578689575195,-0.004055042751133442,0.0014135149540379643,-0.0008716515731066465,0.056277074,57.043552,Clouds
135017.592,0.000622086226940155,-0.0029689667280763388,0.0007897019386291504,-0.0015871534124016762,0.0013208547607064247,0.0013462887145578861,0.05189116,57.043552,Clouds
135017.622,-0.00025643594563007355,-0.0025735495146363974,0.003185093402862549,-0.001231128117069602,0.0026778760366141796,-0.0005841043894179165,0.045009505,57.043552,Clouds
135017.652,0.002250470221042633,-0.0013841199688613415,-0.0016367435455322266,0.0003849719651043415,-0.0005142560694366693,-0.0009537027799524367,0.041323796,57.043552,Clouds
135017.682,0.0010200878605246544,-0.0018393963109701872,-6.4849853515625e-05,-0.0014964778674766421,0.00011330988490954041,0.0008772662258706987,0.03771529,57.043552,Clouds
135017.711,-0.0007911333814263344,-0.0027945328038185835,0.0023458003997802734,-0.005162468180060387,0.0017425756668671966,0.0012194722658023238,0.05018307,57.043552,Clouds
135017.741,0.001027318648993969,-0.0009867059998214245,0.0037645697593688965,-0.00037031504325568676,0.0008430135203525424,-0.00017525599105283618,0.04758922,57.043552,Clouds
135017.771,0.001958635635674,-0.0016700145788490772,-0.0013015270233154297,-0.0006277908105403185,0.002092556096613407,0.0007740305736660957,0.04269988,57.043552,Clouds
135017.801,0.0021004974842071533,-0.003926524892449379,-0.002888619899749756,0.0011151647195219994,-0.0014491514302790165,0.0022101886570453644,0.048398018,57.043552,Clouds
135017.831,0.0007489975541830063,-0.003005041740834713,-0.001027524471282959,9.282701648771763e-05,0.000994492438621819,-0.0007848557434044778,0.045690212,57.043552,Clouds
135017.860,-0.0003501027822494507,-0.0016273818910121918,0.0022987723350524902,0.0013189606834203005,0.0014089130563661456,0.00010178465163335204,0.04496812,57.043552,Clouds
135017.890,0.0003087492659687996,-0.0013211036566644907,-0.0007989406585693359,0.0002784638199955225,-0.0010969439754262567,0.0011176485568284988,0.04320333,57.043552,Clouds
135017.920,0.0020905351266264915,-0.002090916968882084,0.0002995729446411133,-0.004302497953176498,-0.00019548881391528994,0.0012151312548667192,0.04046865,57.043552,Clouds
135017.949,0.0017305584624409676,-0.0025244071148335934,-0.0025998353958129883,-0.0023511264007538557,-0.0013251162599772215,0.0012624800438061357,0.038281586,57.043552,Clouds
135017.979,-2.117827534675598e-06,-0.0025659489911049604,-0.0021725893020629883,-0.003602804848924279,0.0005747487884946167,0.0010460609337314963,0.03601051,57.043552,Clouds
135018.010,0.002448897808790207,-0.0019317634869366884,-0.0017910599708557129,-0.0015269843861460686,-0.0022660004906356335,-0.0004157013609074056,0.042928975,57.043552,Clouds
135018.039,0.0003987988457083702,-0.002819027518853545,7.069110870361328e-05,-0.0017772638238966465,0.0005116423708386719,-0.000634383934084326,0.05363134,57.043552,Clouds
135018.069,0.0008048620074987411,-0.002886513015255332,-0.0011500716209411621,-0.0014127272879704833,9.311595931649208e-05,-0.00015822885325178504,0.047709655,57.043552,Clouds
135018.099,0.001301540993154049,-0.0024631356354802847,0.00034493207931518555,0.0022537470795214176,-0.00199661822989583,-0.0013100329088047147,0.043969583,57.043552,Clouds
135018.129,0.0007153535261750221,-0.002157229697331786,-0.0017913579940795898,0.001661820337176323,0.0005347897531464696,0.00017703732009977102,0.04336583,57.043552,Clouds
135018.159,0.0003714160993695259,-0.0018262781668454409,0.0004515647888183594,0.00017280480824410915,0.0011156328255310655,-0.003799733007326722,0.040526744,57.043552,Clouds
135018.189,0.0012890342622995377,-0.0023403032682836056,0.0003902912139892578,0.0016051216516643763,-0.0014543237630277872,0.0023139342665672302,0.03880076,57.043552,Clouds
135018.218,0.0013423515483736992,-0.002647347515448928,0.0003597736358642578,-0.004796959925442934,0.0022729840129613876,0.0002476124791428447,0.03304041,57.043552,Clouds
135018.248,0.001195346936583519,-0.0027153100818395615,-0.002203822135925293,0.0004200730472803116,-0.00063860829686746,0.002091027330607176,0.030669115,57.043552,Clouds
135018.278,0.0013540517538785934,-0.002184235258027911,0.0017784833908081055,0.001216659788042307,-0.00021931562514510006,0.0007541918894276023,0.027246043,57.043552,Clouds
135018.308,-0.00018901564180850983,-0.0027937591075897217,0.0008475184440612793,0.0029873265884816647,-0.0013144169934093952,0.0008504019933752716,0.024947267,57.043552,Clouds
135018.337,5.0387345254421234e-05,-0.002396089257672429,0.0009695887565612793,0.0020789254922419786,-0.00033404823625460267,-0.0007984577096067369,0.023058668,57.043552,Clouds
135018.367,0.00328956451267004,-0.001394142396748066,-0.0007545948028564453,0.00015268404968082905,0.001663123955950141,-0.00028028443921357393,0.019679766,57.043552,Clouds
135018.397,0.0012999549508094788,-0.0020591209176927805,-6.9141387939453125e-06,-0.0002462922129780054,0.0011350482236593962,0.0010584985138848424,0.01964035,57.043552,Clouds
135018.428,-0.002019386738538742,-0.0036505444440990686,9.995698928833008e-05,0.0007719022687524557,1.1579686542972922e-05,-0.0004888966795988381,0.018084692,57.043552,Clouds
135018.457,5.800463259220123e-05,-0.002349310787394643,0.0008019804954528809,-0.0011968300677835941,0.0014436040073633194,-0.0002767760888673365,0.016900871,57.043552,Clouds
135018.486,0.0033039208501577377,-0.0020118101965636015,0.0002225041389465332,-0.0003184359520673752,-0.0009536602883599699,-0.0006525071221403778,0.01582579,57.043552,Clouds
135018.517,0.0009284727275371552,-0.003005295991897583,-0.0016235709190368652,-0.0017876876518130302,0.0005613998509943485,-0.0035886820405721664,0.013747799,57.043552,Clouds
135018.547,-0.0017790384590625763,-0.0032394484151154757,-0.0004029273986816406,-0.0013797078281641006,-0.0015912760281935334,-0.00021094048861414194,0.013231519,57.043552,Clouds
135018.576,0.0014750827103853226,-0.001934838481247425,0.0020536184310913086,-0.00028771418146789074,-0.0004608932067640126,-0.00040462816832587123,0.019228876,57.043552,Clouds
135018.606,0.0026986710727214813,-0.0020505778957158327,-0.0017760992050170898,0.001273375703021884,-0.00047567248111590743,0.0004886975511908531,0.050096985,57.043552,Clouds
135018.636,0.0001012999564409256,-0.00344289094209671,-0.004980504512786865,0.0006142235361039639,0.0011835864279419184,-0.000981246354058385,0.049290862,57.043552,Clouds
135018.666,0.0006650825962424278,-0.004061330109834671,-0.0043849945068359375,0.0006730824243277311,0.0007479793857783079,0.0018672257428988814,0.04397335,57.043552,Clouds
135018.696,0.002327841706573963,-0.0010843256022781134,0.003198385238647461,-0.0009369982872158289,0.0008444959530606866,-0.00041542021790519357,0.041455116,57.043552,Clouds
135018.726,-0.0009054336696863174,-0.0014318402390927076,0.0004976987838745117,-0.002630379982292652,0.0008326476090587676,-0.0025428151711821556,0.14156067,57.043552,Clouds
135018.755,-0.0010975925251841545,-0.0030540714506059885,-0.00449216365814209,0.00017682136967778206,0.0012039302382618189,0.0004653123614843935,0.36866444,57.043552,Clouds
135018.785,0.0025086235255002975,-0.002502585295587778,-6.729364395141602e-05,-0.0004810960963368416,0.0006998379831202328,0.0014040423557162285,0.3461345,57.043552,Clouds
135018.815,0.002166283316910267,-0.0019313450902700424,0.0006345510482788086,0.00028085242956876755,0.00041094975313171744,0.0002678189775906503,0.35558027,57.043552,Clouds
135018.845,-0.0006445553153753281,-0.0028350483626127243,-0.0020052194595336914,-0.00016811024397611618,-0.0003647286503110081,0.001332961954176426,0.33883744,57.043552,Clouds
135018.875,3.251340240240097e-05,-0.003190429415553808,-0.0014712214469909668,0.001677891006693244,0.0015621534548699856,-0.0015876396792009473,0.32025835,57.043552,Clouds
135018.904,0.002483431249856949,-0.002100965939462185,-0.002158224582672119,-0.001369193778373301,-0.0003740333195310086,-0.00037675665225833654,0.2666302,57.043552,Clouds
135018.934,0.0003406396135687828,-0.0036395066417753696,-0.0005559325218200684,-0.001278248499147594,-0.00016903936921153218,0.002825334668159485,0.2425961,57.043552,Clouds
135018.964,6.561726331710815e-05,-0.002102576196193695,-0.000738978385925293,-0.0008416885975748301,-1.3600816600956023e-05,-2.0408187992870808e-06,0.21591714,57.043552,Clouds
135018.994,0.002935534343123436,-0.0027784642297774553,-0.00012856721878051758,0.0011763970833271742,-0.0003687509160954505,0.0011676620924845338,0.2049472,57.043552,Clouds
135019.024,0.001161382533609867,-0.0016155806370079517,0.002114534378051758,-0.0018453432712703943,-0.000682357233017683,0.001503169653005898,0.19626172,57.043552,Clouds
135019.054,-0.000919620506465435,-0.003137479769065976,0.0004665851593017578,-0.000916000222787261,-0.0011686231009662151,0.002997726434841752,0.17399621,57.043552,Clouds
135019.083,0.002228205092251301,-0.0020562626887112856,0.001061856746673584,-0.002341718878597021,0.0007216110825538635,1.6407400835305452e-05,0.1610082,57.043552,Clouds
135019.113,0.002685094252228737,-0.0014592616353183985,0.002251863479614258,-0.002539563924074173,0.0006473667453974485,-0.0007663998985663056,0.14845699,57.043552,Clouds
135019.143,-0.0006187465041875839,-0.003707386553287506,0.0012293457984924316,-0.0012941843597218394,-0.00019575512851588428,-0.0016136751510202885,0.14759375,57.043552,Clouds
135019.173,-0.0010207053273916245,-0.005061039701104164,0.0009391903877258301,0.0018577049486339092,0.00238879700191319,-0.00044713192619383335,0.16574547,57.043552,Clouds
135019.203,0.003048868849873543,-0.002653938252478838,-0.002066671848297119,-0.002501418814063072,-0.00028269144240766764,-0.0014210271183401346,0.19131006,57.043552,Clouds
135019.232,0.00384349562227726,-0.0005563567392528057,8.475780487060547e-05,0.0019089628476649523,-0.001179358921945095,-0.0011522290296852589,0.1829758,57.043552,Clouds
135019.262,-0.001827949658036232,-0.0036584767512977123,-0.0006780624389648438,0.0007047983817756176,-0.0012713451869785786,0.00013793644029647112,0.21870257,57.043552,Clouds
135019.292,0.0002510305494070053,-0.0031981023494154215,2.4020671844482422e-05,-0.000468868063762784,-0.0018012492218986154,-0.0011407097335904837,0.20137365,57.043552,Clouds
135019.322,0.003611386753618717,-0.0008900677785277367,-0.0001894831657409668,0.0016890894621610641,-0.0004846965312026441,-0.001523983315564692,0.19107114,57.043552,Clouds
135019.352,0.0003643287345767021,0.0002922387793660164,0.002572000026702881,-0.0008085062727332115,-5.284709914121777e-05,0.0003208248526789248,0.16743809,57.043552,Clouds
135019.382,-0.0015286067500710487,-0.006766144186258316,-0.001608729362487793,-0.0019480782793834805,-0.0007595837814733386,0.00021724990801885724,0.2087487,57.043552,Clouds
135019.412,6.235949695110321e-05,-0.004193912260234356,-0.0007543563842773438,-0.00010602641850709915,0.0007342748576775193,0.001088727731257677,0.26813376,57.043552,Clouds
135019.441,0.004366051405668259,-0.0009691657032817602,-0.001532435417175293,0.0010414083953946829,0.0001243694860022515,0.0004558911605272442,0.24992633,57.043552,Clouds
135019.471,0.0012587439268827438,-0.001287971157580614,3.916025161743164e-05,0.0024718923959881067,-1.2434451491571963e-05,-0.0006016494007781148,0.22965637,57.043552,Clouds
135019.501,-0.001996011473238468,-0.00430276058614254,-0.00017446279525756836,0.00031981407664716244,-0.0015344730345532298,-0.0004817724693566561,0.19657725,57.043552,Clouds
135019.531,0.0013168184086680412,-0.0028046034276485443,-0.0022649168968200684,-0.000881911488249898,-0.0025246823206543922,0.001680703368037939,0.18556343,57.043552,Clouds
135019.561,0.003780004568397999,-0.0018458992708474398,-0.0003879666328430176,-0.00048810732550919056,-0.00209204968996346,0.00039614917477592826,0.32022208,57.043552,Clouds
135019.590,0.00015378929674625397,-0.003322273725643754,0.0023131370544433594,6.179511547088623e-05,-0.0013005328364670277,-0.001199405058287084,0.29908258,57.043552,Clouds
135019.620,-0.002551722340285778,-0.003506473731249571,3.9637088775634766e-05,0.00016700709238648415,-0.0006376313394866884,-0.0005937885725870728,0.27216932,57.043552,Clouds
135019.650,0.0029186708852648735,-0.0013422085903584957,0.0010922551155090332,-0.0019375489791855216,-0.00028129277052357793,-0.0003404658054932952,0.24508,57.043552,Clouds
135019.680,0.0021608565002679825,-0.001703944057226181,0.001015782356262207,-8.499063551425934e-05,0.000772051396779716,0.00021938252029940486,0.23620284,57.043552,Clouds
135019.710,-0.0027466369792819023,-0.0026237061247229576,0.000939488410949707,0.0025154361501336098,0.0006298508960753679,-0.0011063315905630589,0.23056728,57.043552,Clouds
135019.740,0.0006531123071908951,-0.0023086245637387037,-0.0002205967903137207,0.0002742453943938017,0.0010466796811670065,-0.001008504768833518,0.22080418,57.043552,Clouds
135019.770,0.005141519010066986,-0.0011737302411347628,0.0007253289222717285,-0.0009180062916129827,0.0003929690574295819,-0.0005082297138869762,0.21461385,57.043552,Clouds
135019.799,-0.001431950367987156,-0.002828405238687992,-0.0024332404136657715,-0.0014083895366638899,-0.0004067277768626809,0.0003201351501047611,0.18003498,57.043552,Clouds
135019.829,-0.0022236136719584465,-0.0032286213245242834,-0.000648200511932373,0.0012829741463065147,0.0006822703871876001,-0.0004572852631099522,0.16330706,57.043552,Clouds
135019.859,0.005644812248647213,-0.0008618033025413752,-0.0004194974899291992,-2.0238803699612617e-05,0.0018577747978270054,0.0012676535407081246,0.13282408,57.043552,Clouds
135019.889,0.002650669775903225,-0.0013776703272014856,0.00040405988693237305,0.0007442936766892672,0.0005600495496764779,-6.588362157344818e-05,0.12105943,57.043552,Clouds
135019.918,-0.0027875443920493126,-0.002940672915428877,0.0010448694229125977,-0.003335740650072694,0.001201207865960896,0.0005508839385583997,0.11035281,57.043552,Clouds
135019.948,0.0016841385513544083,-0.001782312523573637,-0.0011522173881530762,0.00527697429060936,0.0020765371154993773,-0.003548277309164405,0.0899191,57.043552,Clouds
135019.978,0.005672477185726166,-0.0005441680550575256,-5.346536636352539e-05,-0.0014219286385923624,0.0012539636809378862,0.00033592269755899906,0.08527581,57.043552,Clouds
135020.008,-0.001921829767525196,-0.002960651647299528,0.00026679039001464844,0.00022710906341671944,-0.000934512005187571,0.003298105439171195,0.076776534,57.043552,Clouds
135020.038,-0.0026703206822276115,-0.0028951349668204784,0.00020551681518554688,-0.000755929620936513,0.0006847064360044897,0.0011282875202596188,0.071680225,57.043552,Clouds
135020.068,0.003357485868036747,-0.00176178477704525,-0.0021594762802124023,-0.0004885629750788212,-0.00040178687777370214,0.0019156490452587605,0.06869195,57.043552,Clouds
135020.098,0.003155061975121498,-0.0021775937639176846,-0.0019150376319885254,-0.0009436062537133694,-5.370833969209343e-05,0.0011391829466447234,0.10817594,57.043552,Clouds
135020.127,-0.00202028825879097,-0.003042485797777772,0.00031298398971557617,-0.0034161130897700787,0.0008317949250340462,-0.001434488222002983,0.14523064,57.043552,Clouds
135020.157,0.0009608585387468338,-0.00226616021245718,-0.00032782554626464844,-0.0012219997588545084,0.0018386224983260036,-0.0007347086211666465,0.122727714,57.043552,Clouds
135020.187,0.0034359917044639587,-0.0021274115424603224,-0.0018688440322875977,0.002751106396317482,0.0004643979191314429,0.0007150372839532793,0.11273246,57.043552,Clouds
135020.217,0.0007314551621675491,-0.0027526323683559895,9.959936141967773e-05,-0.0015046041226014495,-0.00047458044718950987,0.000383512960979715,0.10355548,57.043552,Clouds
135020.247,-0.0022031040862202644,-0.0028629950247704983,0.0008322596549987793,0.002232789993286133,0.00195581978186965,-0.0015697933267802,0.087768346,57.043552,Clouds
135020.277,0.0030227135866880417,-0.0019892535638064146,-0.005454897880554199,0.0002897318918257952,0.0010100849904119968,0.0026126555167138577,0.09875108,57.043552,Clouds
135020.306,0.0020057260990142822,-0.0008896831423044205,0.0010299086570739746,0.0010739294812083244,-0.0015817406820133328,0.00020239129662513733,0.10234868,57.043552,Clouds
135020.336,-0.0018680524080991745,-0.0024905058089643717,0.0008928179740905762,-0.0012880907161161304,0.001293001463636756,0.002075306372717023,0.09518101,57.043552,Clouds
135020.366,0.001794193871319294,-0.0027238603215664625,-0.002372264862060547,0.0012402983848005533,-0.002245919778943062,0.0008715383592061698,0.088584825,57.043552,Clouds
135020.396,0.0030805813148617744,-0.0022312423679977655,0.00016063451766967773,-0.0005541695281863213,-2.33575701713562e-06,0.0010049953125417233,0.079028785,57.043552,Clouds
135020.426,-0.00013376865535974503,-0.0028192559257149696,9.948015213012695e-05,0.0005664397031068802,-0.0013132834574207664,-0.0005473024793900549,0.07735732,57.043552,Clouds
135020.456,-0.00040839239954948425,-0.0024464172311127186,0.000786125659942627,0.0008768877014517784,-0.0010381124448031187,-5.926820449531078e-05,0.067439936,57.043552,Clouds
135020.485,0.0029276087880134583,-0.0017818193882703781,-0.0010448694229125977,-8.201668970286846e-05,-0.0011590811191126704,-0.0018140224274247885,0.06595849,57.043552,Clouds
135020.515,0.0007656114175915718,-0.00295629701577127,-0.00032770633697509766,-0.0006073296535760164,-0.0006130293477326632,-0.00010797713184729218,0.06277197,57.043552,Clouds
135020.545,-0.0008271299302577972,-0.0019606933929026127,0.0009846687316894531,0.0026899869553744793,-0.0016282391734421253,-0.0013331271475180984,0.056087177,57.043552,Clouds
135020.575,0.0019084615632891655,-0.0018751532770693302,-0.004508674144744873,0.00023389002308249474,-0.0005421710666269064,-0.0006887594354338944,0.053335365,57.043552,Clouds
135020.605,0.0026557324454188347,-0.005906375125050545,-0.002540290355682373,0.0007780254818499088,-0.0017555224476382136,-0.0008236684952862561,0.047596287,57.043552,Clouds
135020.635,0.0016956785693764687,0.0018053499516099691,0.004799485206604004,0.001163083128631115,-0.0017586912726983428,0.0007283961167559028,0.04435527,57.043552,Clouds
135020.664,-0.001459154300391674,-0.00150560331530869,-0.0018227696418762207,0.00011906865984201431,0.0012963754124939442,-0.0010909114498645067,0.040807754,57.043552,Clouds
135020.694,-0.0010253190994262695,-0.005113586783409119,-0.0022653937339782715,-0.0008803403470665216,0.0010327372001484036,0.0014878674410283566,0.047820732,57.043552,Clouds
135020.724,0.005389668978750706,-0.0023650466464459896,-0.0010141730308532715,0.0009457871783524752,7.688262849114835e-05,0.0010413588024675846,0.044717245,57.043552,Clouds
135020.754,0.0018451577052474022,-0.0010873328428715467,-5.233287811279297e-05,-0.0004748122300952673,-0.0027153075207024813,-0.001340772258117795,0.039727625,57.043552,Clouds
135020.784,-0.0025472491979599,-0.001463982043787837,-0.0006170868873596191,0.0012005926109850407,-0.0013233794597908854,0.0016263937577605247,0.04806148,57.043552,Clouds
135020.813,0.0027123941108584404,-0.0011088864412158728,0.0007865428924560547,0.0029468638822436333,0.00039211439434438944,0.0007817805162630975,0.045701664,57.043552,Clouds
135020.843,0.005036558955907822,-0.001986902905628085,0.0004811882972717285,-0.002007456263527274,-0.0010613258928060532,0.0012212962610647082,0.04504793,57.043552,Clouds
135020.873,-0.0014572236686944962,-0.003238100092858076,-0.0016089677810668945,-0.0015057743294164538,0.0002116733230650425,0.0023970031179487705,0.0544311,57.043552,Clouds
135020.903,0.0007377201691269875,-0.002483154647052288,-0.0014563202857971191,0.00024968525394797325,-0.001703092479147017,0.0020467154681682587,0.051249415,57.043552,Clouds
135020.933,0.003311281092464924,-0.0009986960794776678,0.0008933544158935547,-0.0009156917221844196,-0.0013273260556161404,0.0010349960066378117,0.06943064,57.043552,Clouds
135020.963,-0.00014642998576164246,-0.0019301988650113344,0.0012899041175842285,0.00167416175827384,-0.0005342663498595357,0.0001825548824854195,0.069333114,57.043552,Clouds
135020.992,-0.0006210803985595703,-0.0028692972846329212,0.0023428797721862793,-0.0016663102433085442,0.00021020646090619266,-0.0007663695141673088,0.06386397,57.043552,Clouds
135021.022,0.0020525185391306877,-0.0014813835732638836,-0.001990675926208496,-0.0002508237957954407,-0.00018441675638314337,4.4816406443715096e-06,0.069582336,57.043552,Clouds
135021.052,0.002122260630130768,-0.001115873223170638,-0.0011667609214782715,0.003451444674283266,-0.001392457284964621,0.0007519774371758103,0.064082585,57.043552,Clouds
135021.081,-0.001130671240389347,-0.0019188227597624063,0.0005726814270019531,0.0004083043895661831,-0.0018283112440258265,0.00043891341192647815,0.063384436,57.043552,Clouds
135021.112,-0.00017041712999343872,0.00018250802531838417,0.0005878806114196777,-0.0005632645916193724,0.00017596319958101958,0.002137313596904278,0.08205,57.043552,Clouds
135021.141,0.001783532090485096,-0.0022173463366925716,-0.0024183988571166992,0.001024811528623104,0.0011143677402287722,0.0018234294839203358,0.07380056,57.043552,Clouds
135021.171,0.0016875984147191048,-0.003341113915666938,-0.0004500746726989746,-0.0003975583240389824,0.0006924457265995443,0.00032538632513023913,0.070773095,57.043552,Clouds
135021.201,0.0007127299904823303,-0.0019556309562176466,0.0001601576805114746,-0.001902862568385899,0.002468230202794075,0.0012985281646251678,0.060427584,57.043552,Clouds
135021.231,0.0003220401704311371,-0.001721513457596302,-0.0010759234428405762,-0.0003122882917523384,-0.0009217073675245047,-0.0012456865515559912,0.056249693,57.043552,Clouds
135021.261,0.0018888236954808235,-0.0027876200620085,-0.000572502613067627,0.0007022167555987835,0.00016268811305053532,0.0008035255596041679,0.05315669,57.043552,Clouds
135021.291,0.0007454846054315567,-0.00071335444226861,0.0015178322792053223,0.00040580984205007553,0.0011178829008713365,0.0012692558811977506,0.051586233,57.043552,Clouds
135021.320,0.0003147367388010025,-0.003928506281226873,0.0005106329917907715,-0.0010730375070124865,-0.0014876383356750011,0.0041198465041816235,0.048918396,57.043552,Clouds
135021.350,0.0025557884946465492,0.0006435883697122335,-0.00038945674896240234,0.0015061674639582634,0.000661361264064908,-0.00047046737745404243,0.045536686,57.043552,Clouds
135021.380,-0.0006028804928064346,-0.002521394519135356,-0.001900315284729004,8.396501652896404e-05,0.0003510540700517595,-0.0003293135087005794,0.054403257,57.043552,Clouds
135021.410,-0.0014440007507801056,-0.0038361279293894768,-0.0006338953971862793,0.0038172255735844374,-0.0013128280406817794,0.0004716487892437726,0.050429385,57.043552,Clouds
135021.440,0.0037290100008249283,-0.0018955525010824203,-0.001061081886291504,-0.0013728216290473938,0.00010039171320386231,0.0005780068458989263,0.063523345,57.043552,Clouds
135021.470,0.0019417665898799896,-0.002579496707767248,-0.0005574822425842285,0.0014842096716165543,-3.4261480323038995e-05,0.0007969483267515898,0.07128899,57.043552,Clouds
135021.499,-0.001595999114215374,-0.0014704861678183079,-0.0005115270614624023,0.0020419429056346416,0.0006814326625317335,0.0017813523299992085,0.06538634,57.043552,Clouds
135021.529,0.0022454019635915756,-0.0023310277611017227,0.0006325244903564453,0.0014621224254369736,0.0021879628766328096,0.0007353037944994867,0.06230428,57.043552,Clouds
135021.559,0.005728558637201786,-0.0030674724839627743,-0.0002219080924987793,0.0029192392248660326,-0.000489588943310082,0.0005255653522908688,0.069474794,57.043552,Clouds
135021.589,-0.005486148409545422,-0.0014385669492185116,0.0013805031776428223,-0.0007069755811244249,0.00035170232877135277,-0.0007418798049911857,0.0670703,57.043552,Clouds
135021.619,0.0012570107355713844,-0.0025297440588474274,-0.0010609030723571777,-0.0010009633842855692,4.3571359128691256e-05,0.0010471319546923041,0.08620005,57.043552,Clouds
135021.648,0.007937883026897907,-0.0018325173296034336,-0.0009083151817321777,-0.0026381786447018385,-0.0007199804531410336,0.0017993482761085033,0.09464347,57.043552,Clouds
135021.678,-0.0026165153831243515,-0.002314232289791107,-0.0002671480178833008,-0.001087256008759141,-0.00042656000005081296,-0.00220239395275712,0.09219852,57.043552,Clouds
135021.708,-0.0026811957359313965,-0.00223831320181489,0.0008620619773864746,0.0003797006793320179,0.001529658562503755,0.0005566131439991295,0.08592288,57.043552,Clouds
135021.738,0.005916948430240154,-0.001051347702741623,-0.001121819019317627,0.0007665189914405346,0.002104999963194132,0.0007577983778901398,0.07519932,57.043552,Clouds
135021.768,0.000698387622833252,-0.001621488481760025,-0.00032824277877807617,-0.0020382071379572153,8.51054210215807e-05,0.0012006601318717003,0.07140185,57.043552,Clouds
135021.798,-0.004524402320384979,-0.003664956893771887,-0.00315093994140625,0.001010878011584282,-0.000799139030277729,0.00011477019870653749,0.061080806,57.043552,Clouds
135021.828,0.0013909442350268364,-0.002789788879454136,-0.002525150775909424,-0.0025209051091223955,-0.001176265301182866,1.265073660761118e-05,0.05585387,57.043552,Clouds
135021.857,0.005405952222645283,-0.00086582126095891,-0.00037366151809692383,-0.0004984745755791664,-0.0005608434439636767,0.0009011286892928183,0.05246368,57.043552,Clouds
135021.887,-0.0007507568225264549,-0.002218805253505707,-0.00019031763076782227,-0.0007227796595543623,-0.00033968361094594,-0.0004744508769363165,0.04760231,57.043552,Clouds
135021.917,-0.0016192775219678879,-0.003179257269948721,0.0010153651237487793,9.246752597391605e-05,0.0007549750152975321,-0.00014354108134284616,0.043501254,57.043552,Clouds
135021.947,0.004607680253684521,-0.0017146510072052479,-9.85860824584961e-05,-0.0012106464710086584,-0.0006618929328396916,-0.0009198571788147092,0.042119652,57.043552,Clouds
135021.977,0.0029627010226249695,-0.0016804859042167664,-0.002753615379333496,0.0007604996208101511,0.001168366288766265,0.0009311616886407137,0.0740167,57.043552,Clouds
135022.007,-0.0017174668610095978,-0.0030562947504222393,0.0006794929504394531,0.0017484256532043219,-0.0020560796838253736,-1.9471277482807636e-05,0.07136963,57.043552,Clouds
135022.036,0.00026121456176042557,-0.0021338346414268017,0.001152336597442627,-0.001150056254118681,-4.7501758672297e-05,0.00032138204551301897,0.061559346,57.043552,Clouds
135022.066,0.003444935195147991,-0.0009042192250490189,0.0004962682723999023,0.002648469526320696,-0.0003440297150518745,0.001306123100221157,0.056940798,57.043552,Clouds
135022.095,0.00035833101719617844,-0.0026425295509397984,-0.001289069652557373,-9.22023318707943e-05,0.001378364977426827,0.00034005241468548775,0.05243404,57.043552,Clouds
135022.126,-0.000949520617723465,-0.0025107492692768574,0.0016405582427978516,-0.000901122810319066,0.0006707197753712535,0.00049013044917956,0.04625729,57.043552,Clouds
135022.156,0.0021117599681019783,-0.0016968268901109695,-0.001380622386932373,-0.00031163706444203854,0.0010344574693590403,-0.0003275341005064547,0.043029994,57.043552,Clouds
135022.186,0.0017903801053762436,-0.001390745397657156,2.3245811462402344e-05,0.00162440724670887,-0.0033113087993115187,0.0012743247207254171,0.03733094,57.043552,Clouds
135022.215,-0.00035263411700725555,-0.0018087620846927166,0.00017559528350830078,-0.0005909486208111048,-0.0007735347608104348,0.00024220545310527086,0.07083223,57.043552,Clouds
135022.245,0.000919966958463192,-0.002360851503908634,-0.00119781494140625,0.0026345285587012768,-0.00035957241198047996,0.00026994830113835633,0.06981536,57.043552,Clouds
135022.275,0.00310501828789711,-0.0013991319574415684,0.002403557300567627,-0.001345369964838028,-0.0009841183200478554,-0.0017964171711355448,0.06329702,57.043552,Clouds
135022.305,0.0010809516534209251,-0.002232828177511692,0.0002670884132385254,-0.0008667865768074989,0.00017773201398085803,-0.0012571235420182347,0.06652176,57.043552,Clouds
135022.335,-0.0007395679131150246,-0.0023593083024024963,0.0018084049224853516,0.0014165833126753569,-0.000577910803258419,-0.0007129566511139274,0.059687573,57.043552,Clouds
135022.364,0.0017043137922883034,-0.0010309419594705105,0.002312302589416504,-0.002590526593849063,0.00013435984146781266,-0.002246049465611577,0.054760024,57.043552,Clouds
135022.395,0.0042587267234921455,-0.001691572368144989,-0.004493057727813721,0.0005234915297478437,0.00015521580644417554,0.0013934164308011532,0.051639065,57.043552,Clouds
135022.424,0.000677027739584446,-0.0022039194591343403,-0.001029372215270996,-0.0012447398621588945,0.0006179545307531953,0.0011816963087767363,0.046987932,57.043552,Clouds
135022.454,-0.0003010472282767296,-0.002867818344384432,0.0011370182037353516,-0.00030472944490611553,0.0010650254553183913,0.001883731223642826,0.04392928,57.043552,Clouds
135022.484,0.0024030813947319984,-0.0014900830574333668,-0.002097904682159424,0.00045788311399519444,-0.0009735191706568003,0.0002162180026061833,0.044262677,57.043552,Clouds
135022.514,0.002289420925080776,-0.0014383327215909958,-0.0017625689506530762,-0.0011358126066625118,0.00187961186747998,0.0008169804932549596,0.042347353,57.043552,Clouds
135022.543,-0.00012820307165384293,-0.0023823678493499756,0.0007854700088500977,-6.016576662659645e-05,-0.0026212595403194427,-0.0010297303088009357,0.03978163,57.043552,Clouds
135022.573,0.0005523506551980972,-0.0017174379900097847,-0.0003286004066467285,-0.0019986385013908148,-0.002261481247842312,0.00018270662985742092,0.03565414,57.043552,Clouds
135022.603,0.0031215036287903786,-0.0004506446421146393,-0.0005269050598144531,0.002069447422400117,-0.0011081114644184709,0.0009888170752674341,0.03383929,57.043552,Clouds
135022.633,0.00018481723964214325,-0.001878263894468546,0.0006022453308105469,0.00046608992852270603,-0.0012264606775715947,-0.0011301081394776702,0.030838927,57.043552,Clouds
135022.663,-0.0012749368324875832,-0.003172860015183687,0.002006351947784424,-0.0011249901726841927,-0.0011002743849530816,-0.00044134672498330474,0.029748412,57.043552,Clouds
135022.693,0.0019198432564735413,-0.0014881519600749016,-0.0022205710411071777,0.003807816421613097,-0.00022221473045647144,0.0031758504919707775,0.029274818,57.043552,Clouds
135022.722,0.0031900396570563316,-0.0012598824687302113,0.0030590295791625977,0.0005449641030281782,-0.000573210883885622,-0.001124228467233479,0.026191065,57.043552,Clouds
135022.752,-0.0006866268813610077,-0.0027025830931961536,-0.0006792545318603516,-0.0036807323340326548,0.0004932045703753829,-0.0010501642245799303,0.024838576,57.043552,Clouds
135022.782,0.00011955853551626205,-0.003929301165044308,0.0024489760398864746,0.002092646202072501,0.0019356845878064632,5.513051291927695e-05,0.028715447,57.043552,Clouds
135022.812,0.0033341310918331146,-0.0028333677910268307,0.012061893939971924,-0.002255051862448454,0.0028511593118309975,-0.0007850326364859939,0.026770812,57.043552,Clouds
135022.842,0.00029984768480062485,0.0009634899906814098,-0.0070726871490478516,-0.002899713348597288,-0.0001661186252022162,-0.00012582767521962523,0.0256502,57.043552,Clouds
135022.871,-0.0007149958983063698,-0.003078443929553032,-0.0037004947662353516,0.0010457222815603018,-0.00010370780364610255,0.0003104223869740963,0.033345416,57.043552,Clouds
135022.901,0.003112669102847576,-0.0028487173840403557,0.003028571605682373,-0.0001231019850820303,-9.763227717485279e-05,-0.0017138251569122076,0.058679447,57.043552,Clouds
135022.931,0.0014355313032865524,-0.0009521408937871456,-0.0022814273834228516,6.899028085172176e-05,-0.0002928185276687145,-0.0016684404108673334,0.05079091,57.043552,Clouds
135022.961,-1.0104849934577942e-05,-0.002436399459838867,-0.0018391609191894531,-0.0013300060527399182,0.0001004809164442122,-0.0006972034461796284,0.05188284,57.043552,Clouds
135022.991,0.0013293027877807617,-0.003118690103292465,-0.0033037662506103516,0.004041786305606365,-0.00020748730457853526,2.1692656446248293e-05,0.047247205,57.043552,Clouds
135023.021,0.002428203821182251,-0.001338345929980278,0.001426398754119873,0.0007233170326799154,0.000621815153863281,0.001589672639966011,0.040257007,57.043552,Clouds
135023.051,0.00015742145478725433,-0.001235335599631071,0.001334846019744873,-0.0028002678882330656,0.000982385827228427,-0.0008385081891901791,0.037487153,57.043552,Clouds
135023.080,0.0004535103216767311,-0.0019467538222670555,-0.0010302066802978516,-0.0022888770326972008,-0.0017468101577833295,0.0008313391008414328,0.031726632,57.043552,Clouds
135023.110,0.0019676145166158676,-0.0020877313800156116,-0.0019456148147583008,0.0011072983033955097,0.0002441692631691694,-0.0013283430598676205,0.029677879,57.043552,Clouds
135023.140,0.0012319386005401611,-0.0012590428814291954,0.0007856488227844238,4.505296237766743e-05,-0.0005381136434152722,-0.000657527067232877,0.027201567,57.043552,Clouds
135023.170,-3.829877823591232e-05,-0.0015715183690190315,-6.872415542602539e-05,0.0016350764781236649,0.0009292475879192352,0.0009061539312824607,0.0247811,57.043552,Clouds
135023.200,0.0016002161428332329,-0.002168324775993824,-0.0010911226272583008,-0.0010506967082619667,0.0010926873655989766,0.0015022770967334509,0.02300915,57.043552,Clouds