Timestamp,AccelX,AccelY,AccelZ,GyroX,GyroY,GyroZ,AudioLevel,LightLevel,Weather
134727.605,0.00020592100918293,-0.0003565717488527298,-0.002078711986541748,-0.0020455247722566128,-0.001163655542768538,0.00012687157141044736,0.013743038,57.043552,Clouds
134727.634,0.00013208668678998947,-0.00048153894022107124,-0.0013312101364135742,-1.576542854309082e-05,-0.0006632378208450973,-0.000765381206292659,0.048964057,57.043552,Clouds
134727.664,-0.0007199198007583618,-0.0007649916224181652,-0.0019107460975646973,-0.00044678826816380024,-0.0009659046190790832,0.0010116356424987316,0.29359177,57.043552,Clouds
134727.695,0.00041609257459640503,-0.00020927051082253456,-0.002307415008544922,0.0011771381832659245,-1.525122206658125e-05,8.292094571515918e-05,0.27454156,57.043552,Clouds
134727.725,0.00014629028737545013,-0.0007430538535118103,-0.0021698474884033203,-0.004260847344994545,0.0006795906228944659,0.0009564065258018672,0.23508778,57.043552,Clouds
134727.755,-2.4897977709770203e-05,-0.00011026160791516304,-0.003558039665222168,0.001677465159446001,-0.00022853224072605371,-0.0020168102346360683,0.25463083,57.043552,Clouds
134727.785,-0.0008166301995515823,-0.001340468879789114,-0.002230525016784668,-0.0002449345774948597,5.194402183406055e-05,-0.0008789481944404542,0.24609098,57.043552,Clouds
134727.815,0.0006772689521312714,-0.001125821378082037,-0.0029934048652648926,5.561765283346176e-05,-0.0010353471152484417,-0.0007488472037948668,0.2107868,57.043552,Clouds
134727.844,-4.25511971116066e-05,-0.00015086866915225983,-0.001467883586883545,-0.0012372592464089394,0.0012060501612722874,-0.0002005806309171021,0.19311547,57.043552,Clouds
134727.874,-0.0009266519919037819,-0.0010459362529218197,-0.002093374729156494,0.0005624694749712944,-0.00045779201900586486,0.0015155000146478415,0.15872617,57.043552,Clouds
134727.903,-0.0002616308629512787,8.747214451432228e-05,-0.0023372769355773926,-0.0023401938378810883,-0.0019180133240297437,0.0009598990436643362,0.14362822,57.043552,Clouds
134727.934,1.029670238494873e-05,-0.0007006824016571045,-0.002871274948120117,-0.00035021943040192127,-0.00015623931540176272,-0.0018139098538085818,0.13640545,57.043552,Clouds
134727.964,-3.914628177881241e-05,-0.0005942080169916153,-0.0030544400215148926,-0.0009745708666741848,0.0007796729914844036,0.0005887743318453431,0.11643796,57.043552,Clouds
134727.994,-0.0007172394543886185,-0.00012654392048716545,-0.0025510191917419434,-0.0011349008418619633,-0.0008730269037187099,0.0007189948810264468,0.10744344,57.043552,Clouds
134728.022,-0.0004618559032678604,-0.0010129236616194248,-0.0019406676292419434,-0.0007571368478238583,0.002258910331875086,0.002289053052663803,0.09038313,57.043552,Clouds
134728.052,0.00020179897546768188,-7.625762373209e-05,-0.0021238327026367188,0.0007044668309390545,-0.0018904361641034484,0.0002281695487909019,0.08245769,57.043552,Clouds
134728.082,-0.00012523867189884186,-0.0009506409987807274,-0.0024288296699523926,-0.00023382878862321377,-0.001080361776985228,0.00030817135120742023,0.07575409,57.043552,Clouds
134728.112,-6.62999227643013e-05,-0.00024585891515016556,-0.002245783805847168,0.00045279785990715027,-0.0002944236621260643,0.0009694741456769407,0.06618385,57.043552,Clouds
134728.142,-5.376152694225311e-05,-0.0005230400711297989,-0.002794802188873291,-0.0023321949411183596,-0.0011299524921923876,0.0023299683816730976,0.06221888,57.043552,Clouds
134728.172,-0.0004606219008564949,-0.0005538337863981724,-0.0023062825202941895,0.0016193254850804806,0.00014085639850236475,0.0001171249314211309,0.059666898,57.043552,Clouds
134728.201,-0.0003833882510662079,-0.0002039112150669098,-0.0022908449172973633,-0.0023055141791701317,0.00013247955939732492,0.0020673226099461317,0.05720557,57.043552,Clouds
134728.231,-0.00023854803293943405,-0.000686256680637598,-0.002413034439086914,0.0011459500528872013,-0.00021098779689054936,0.00042764702811837196,0.05701878,57.043552,Clouds
134728.262,0.0001724548637866974,-0.0004927627742290497,-0.002718329429626465,0.0013329265639185905,0.0005648097139783204,-0.0001897995243780315,0.053630248,57.043552,Clouds
134728.291,0.0003976309671998024,0.00033739209175109863,-0.0033286213874816895,-0.0012901502195745707,-0.00012432379298843443,-0.0001687024487182498,0.052126825,57.043552,Clouds
134728.321,-0.00011866260319948196,-0.00012333830818533897,-0.002901613712310791,-0.001213093288242817,-0.00030901271384209394,0.0011734918225556612,0.10644374,57.043552,Clouds
134728.351,-0.0005312459543347359,-0.00036711059510707855,-0.001696169376373291,0.0019434508867561817,-0.0013890196569263935,-0.0011796244652941823,0.17401654,57.043552,Clouds
134728.380,0.0003635501489043236,-0.0003998582251369953,-0.0024288296699523926,0.0003665643744170666,-0.0009627141989767551,0.0006076275021769106,0.1673809,57.043552,Clouds
134728.411,5.96875324845314e-05,-0.00018507102504372597,-0.0028563737869262695,-0.0016814572736620903,0.001027920632623136,0.0006969131645746529,0.13771468,57.043552,Clouds
134728.440,0.0005686720833182335,-0.00011302903294563293,-0.0038173794746398926,-0.0005762518849223852,-0.0005255505675449967,-0.0005414906772784889,0.12772237,57.043552,Clouds
134728.470,-0.0006646951660513878,0.00046544522047042847,-0.002733945846557617,-0.003023485653102398,0.0004884134978055954,-0.0009541939361952245,0.12721746,57.043552,Clouds
134728.500,-0.0015148697420954704,0.00016156304627656937,-0.0007805824279785156,-0.00016250507906079292,0.0005448019364848733,-0.0010427685920149088,0.11251285,57.043552,Clouds
134728.530,0.0016870060935616493,-0.0017947214655578136,-0.005541324615478516,-0.00040204403921961784,0.0011479508830234408,-0.001509896945208311,0.11475255,57.043552,Clouds
134728.565,0.0021555759012699127,-0.0005463096313178539,-0.0036183595657348633,-0.0038713670801371336,-0.0006147710373625159,0.0005704332143068314,0.112894304,57.043552,Clouds
134728.589,-0.0018533235415816307,0.001128295436501503,-0.00021535158157348633,0.0005365214310586452,0.0004195848887320608,-0.0004327152855694294,0.10922429,57.043552,Clouds
134728.620,-0.0007603922858834267,0.0002539297565817833,0.0008984208106994629,0.0008048359304666519,0.0033435721416026354,-0.0008499862160533667,0.09887002,57.043552,Clouds
134728.650,0.002526320517063141,-0.0007594991475343704,-0.004182875156402588,-0.0011889543384313583,0.0011734699364751577,-0.0006344886496663094,0.09082511,57.043552,Clouds
134728.679,-0.00011442694813013077,-0.0009541688486933708,-0.003922998905181885,0.000500173307955265,0.0015438953414559364,0.0001356141292490065,0.08385906,57.043552,Clouds
134728.710,-0.0027597974985837936,-0.0002448009327054024,-0.000886082649230957,-0.0026852269656956196,0.001143625471740961,0.0022225496359169483,0.07881916,57.043552,Clouds
134728.739,0.00045318901538848877,-0.00062923738732934,-0.0012066364288330078,0.0004436359740793705,-0.0010051775025203824,0.00022699515102431178,0.11052598,57.043552,Clouds
134728.769,0.001448391005396843,-0.00037952326238155365,-0.0031290650367736816,-0.0012220852077007294,0.00065470056142658,-0.0008626611088402569,0.1079337,57.043552,Clouds
134728.799,-0.001497538760304451,-0.0002883598208427429,-0.0033576488494873047,-0.0014536839444190264,-0.0016458658501505852,-0.0009666100377216935,0.16959423,57.043552,Clouds
134728.829,-0.00022364873439073563,-8.048722520470619e-05,-0.0015414953231811523,0.0011808131821453571,-0.00042579855653457344,-0.0012340182438492775,0.16063702,57.043552,Clouds
134728.858,0.002296013757586479,-0.000750281848013401,-0.0025179386138916016,-0.0013254501391202211,-0.0004080107028130442,0.002779132453724742,0.14436217,57.043552,Clouds
134728.888,0.0008706264197826385,-0.0008560698479413986,-0.003021240234375,0.0006073792465031147,0.0005240874597802758,-0.0003335317596793175,0.1331619,57.043552,Clouds
134728.918,-0.0009229555726051331,-0.00024285633116960526,-0.002486705780029297,-0.0018258707132190466,0.00059897341998294,-0.0015109460800886154,0.124060586,57.043552,Clouds
134728.948,0.00037110503762960434,-0.0007944218814373016,-0.0018913745880126953,-0.0005752353463321924,-0.0017418109346181154,0.00016152957687154412,0.10468234,57.043552,Clouds
134728.977,0.0013106847181916237,-0.0004307013005018234,-0.0016467571258544922,0.0010799011215567589,0.0009939281735569239,0.00017820001812651753,0.09657561,57.043552,Clouds
134729.007,0.00023108161985874176,-0.000445737037807703,-0.001921534538269043,-0.000641094520688057,-0.00023611907090526074,0.0009870983194559813,0.08289545,57.043552,Clouds
134729.037,-0.0008507492020726204,-0.00048770103603601456,-0.002959132194519043,0.000316037330776453,0.0017063722480088472,-0.0004959338111802936,0.08173389,57.043552,Clouds
134729.067,0.001456919126212597,-0.0002552112564444542,-0.0030812621116638184,-0.0010373438708484173,0.0005991437938064337,0.0001372133265249431,0.07630018,57.043552,Clouds
134729.096,-6.816349923610687e-05,8.343392983078957e-05,-0.0027146339416503906,0.0005006189458072186,0.0006839329143986106,0.0004654625663533807,0.07685689,57.043552,Clouds
134729.126,-0.0010833153501152992,-0.0001722322776913643,-0.0021802783012390137,4.411395639181137e-05,0.00023046499700285494,0.000523711321875453,0.07316486,57.043552,Clouds
134729.157,-0.0006858780980110168,-0.00013971887528896332,-0.0006698369979858398,0.0031804139725863934,-0.0001425146620022133,0.0009000217542052269,0.06583346,57.043552,Clouds
134729.186,0.0010066013783216476,-0.00017474312335252762,-0.008558690547943115,0.0007006069645285606,-0.0003637704940047115,0.0005316365277394652,0.061915386,57.043552,Clouds
134729.216,-0.0008961427956819534,-0.0016629663296043873,-0.00016582012176513672,0.00012987013906240463,0.0005990052013657987,-0.00037079607136547565,0.07181154,57.043552,Clouds
134729.246,0.0002428106963634491,-0.0006374260410666466,0.0009483695030212402,0.002090310212224722,0.0011728731915354729,0.0013476407621055841,0.06983278,57.043552,Clouds
134729.276,0.00032810401171445847,-0.00048455921933054924,-0.0037512779235839844,-0.0029318910092115402,0.0006898482679389417,-0.0008740767370909452,0.09664408,57.043552,Clouds
134729.306,1.0604970157146454e-05,-0.0004839603789150715,-0.004285335540771484,-0.00017903558909893036,0.0011755514424294233,0.0007777725113555789,0.08319699,57.043552,Clouds
134729.336,-0.000956295058131218,-0.0006053620018064976,-0.0018588900566101074,-0.0007221824489533901,0.0005871725734323263,0.0006761167896911502,0.075756006,57.043552,Clouds
134729.365,0.00044153816998004913,0.00041529303416609764,-0.0019507408142089844,-0.0008651672396808863,0.0005694447318091989,-9.026855695992708e-05,0.07475552,57.043552,Clouds
134729.395,0.0003585647791624069,0.00040608132258057594,-0.0013859868049621582,0.0007362668402493,0.0012139762984588742,0.00311151216737926,0.07022985,57.043552,Clouds
134729.425,-0.0006992686539888382,-0.0012605679221451283,-0.002347230911254883,-0.0005873744376003742,0.00015362657723017037,-0.00021655915770679712,0.066637605,57.043552,Clouds
134729.455,0.0009325500577688217,-0.0014259456656873226,-0.001904308795928955,-0.001547316089272499,-0.002895640442147851,-0.0002341129002161324,0.06429183,57.043552,Clouds
134729.485,0.0012012720108032227,-0.0011794231832027435,-0.0021784305572509766,-0.0029711145907640457,-0.0016076809260994196,-0.001162526081316173,0.07727349,57.043552,Clouds
134729.515,0.00048251543194055557,-0.0009996769949793816,-0.0016901493072509766,0.0005229329690337181,0.002237090840935707,-0.0006685192929580808,0.07330342,57.043552,Clouds
134729.544,-0.0006468510255217552,-0.0007986710406839848,-0.0027275681495666504,0.0013717557303607464,0.00025814230320975184,0.0016468563117086887,0.06619629,57.043552,Clouds
134729.574,0.0005307039245963097,-0.0006155846640467644,-0.001720428466796875,0.0015119658783078194,0.0020008054561913013,0.003036839421838522,0.06501482,57.043552,Clouds
134729.604,0.0006449203938245773,-0.0011162362061440945,-0.0023763179779052734,0.0013327733613550663,0.00110507698263973,0.0012824861332774162,0.061616927,57.043552,Clouds
134729.634,-8.430331945419312e-06,-0.0006179111078381538,-0.0014762282371520996,0.001137684565037489,-0.0014963389839977026,-0.0018518359865993261,0.09100549,57.043552,Clouds
134729.664,-9.284913539886475e-05,-0.0006391392089426517,-0.0024070143699645996,0.001006863545626402,0.0006876541301608086,-0.00036631221882998943,0.13981147,57.043552,Clouds
134729.693,0.0009940043091773987,-0.0011762329377233982,-0.0012779831886291504,0.00020702648907899857,-0.0010537003399804235,-0.0018052586819976568,0.16791797,57.043552,Clouds
134729.724,0.00024395529180765152,-0.0008686743676662445,-0.0029870271682739258,0.000640268437564373,-0.0011266963556408882,0.0011813918827101588,0.16420348,57.043552,Clouds
134729.753,-0.0011579971760511398,-0.0007251948118209839,-0.0021935105323791504,-0.0004119409713894129,-0.0016003043856471777,0.0021242299117147923,0.14939427,57.043552,Clouds
134729.783,0.00028273090720176697,-0.0012101288884878159,-0.0024682283401489258,0.0005287788808345795,0.003433467820286751,0.001874060370028019,0.13983235,57.043552,Clouds
134729.813,0.0012500230222940445,-0.00036824122071266174,-0.0023156404495239258,0.001521917525678873,-8.328397234436125e-05,-0.00038493238389492035,0.12923701,57.043552,Clouds
134729.843,0.0004004416987299919,-0.00012003490701317787,-0.0032157301902770996,-0.0035020019859075546,-0.0020799320191144943,0.00018153496785089374,0.11056688,57.043552,Clouds
134729.873,-7.26720318198204e-05,-0.0006729946471750736,-0.002101600170135498,-0.0005971556529402733,0.00159167661331594,-0.0006920384475961328,0.10594149,57.043552,Clouds
134729.903,0.0004367651417851448,-0.0005901590920984745,-0.0029102563858032227,0.0011976873502135277,-0.0002514500229153782,-0.000179606257006526,0.09147932,57.043552,Clouds
134729.932,0.00044874753803014755,-0.001703993882983923,-0.002452373504638672,-0.0009297768119722605,0.001244527054950595,0.00046691345050930977,0.084377885,57.043552,Clouds
134729.962,0.00039224792271852493,-0.0008169994689524174,-0.0022388696670532227,0.0023527019657194614,0.0001358643057756126,0.001048675156198442,0.078339726,57.043552,Clouds
134729.992,0.0006273621693253517,-0.0006165755912661552,-0.0033222436904907227,0.00037758564576506615,-0.002874089404940605,0.0016158141661435366,0.06529358,57.043552,Clouds
134730.022,0.0007899729534983635,-0.0009911218658089638,-0.0028493404388427734,0.002181470859795809,-0.0020321402698755264,0.0016229281900450587,0.05946099,57.043552,Clouds
134730.052,-0.00013848207890987396,-0.001414373517036438,-0.0028185248374938965,-0.0015505796764045954,-0.0017309575341641903,0.0012067850911989808,0.050717797,57.043552,Clouds
134730.081,0.0002973703667521477,-0.0005202079191803932,-0.0025594234466552734,-0.0010912108700722456,0.0013463586801663041,-0.0015351783949881792,0.0475281,57.043552,Clouds
134730.112,0.0006824927404522896,-0.0006228177808225155,-0.0028184056282043457,-0.00021467357873916626,-0.00358302122913301,-0.0006691956659778953,0.053607482,57.043552,Clouds
134730.141,0.001581098884344101,-5.015917122364044e-05,-0.0023300647735595703,0.00016084406524896622,0.0006498574512079358,0.0005136491963639855,0.046238873,57.043552,Clouds
134730.171,0.0008787736296653748,-0.0005291076377034187,-0.0026203393936157227,-0.0017425739206373692,-0.0011396120535209775,-5.556194810196757e-05,0.04357078,57.043552,Clouds
134730.201,-0.000215788371860981,-0.0009871739894151688,-0.0020254850387573242,0.0005688448436558247,0.0018739696824923158,0.0020663514733314514,0.10613783,57.043552,Clouds
134730.231,0.001701311208307743,-0.0006381967104971409,-0.0021325349807739258,0.0007621720433235168,0.0009363407734781504,-0.0009415836539119482,0.10541933,57.043552,Clouds
134730.260,0.00025942549109458923,-0.00013262545689940453,-0.0017209053039550781,-0.0011612041853368282,0.0022475598379969597,5.882175173610449e-05,0.13757369,57.043552,Clouds
134730.290,-0.0006961096078157425,0.00014323461800813675,-0.003124415874481201,-0.0019365742336958647,-0.0008320153574459255,-0.0006668800488114357,0.16470788,57.043552,Clouds
134730.320,0.0006442219018936157,-0.0015552956610918045,-0.0035210251808166504,-0.0006243984680622816,-0.00038302637403830886,0.002206312958151102,0.15144517,57.043552,Clouds
134730.350,0.00024366844445466995,-0.0007907943800091743,-0.0027733445167541504,-0.0009769005700945854,0.0007147681899368763,0.0008777036564424634,0.12870812,57.043552,Clouds
134730.380,0.0005081323906779289,-0.0007549119181931019,-0.002743244171142578,-0.00044158846139907837,0.00011331733549013734,0.0027537276037037373,0.11751238,57.043552,Clouds
134730.409,0.0007792031392455101,-0.0006252811290323734,-0.0019805431365966797,-0.002049925271421671,0.001133499201387167,-0.0003708779695443809,0.10651245,57.043552,Clouds
134730.439,-0.00014112796634435654,-0.0005122884176671505,-0.0025302767753601074,0.00017390074208378792,-0.001071790000423789,0.0012902994640171528,0.09646166,57.043552,Clouds
134730.469,-0.00014416128396987915,-0.00030654482543468475,-0.004239320755004883,-0.004263259936124086,-0.0028824186883866787,0.0009822130668908358,0.08809738,57.043552,Clouds
134730.499,0.0003538588061928749,-0.0006590727716684341,-0.0019047260284423828,-0.0010767474304884672,-0.00023878975480329245,0.0017860580701380968,0.07970437,57.043552,Clouds
134730.529,-9.746290743350983e-06,-0.0009196056053042412,-0.0018438100814819336,-0.0007490485440939665,-0.0017199282301589847,0.0008562964503653347,0.077271156,57.043552,Clouds
134730.558,0.0001211315393447876,-0.0007542558014392853,-0.001736760139465332,-1.776963472366333e-05,-0.0012564831413328648,0.000539866741746664,0.07524555,57.043552,Clouds
134730.589,-0.0002460647374391556,0.00023538293316960335,-0.002682805061340332,-0.0011334766168147326,-0.0003700489760376513,0.0010263604344800115,0.06945117,57.043552,Clouds
134730.618,-0.0008023511618375778,0.00021075503900647163,-0.0025300979614257812,-0.0004574225749820471,0.00040416105184704065,-6.924645276740193e-05,0.08590017,57.043552,Clouds
134730.648,0.0005453024059534073,-0.0011058412492275238,-0.002712845802307129,-0.0020871926099061966,-0.0027621693443506956,0.0018473131349310279,0.07829888,57.043552,Clouds
134730.678,-0.00019245687872171402,-1.2277625501155853e-05,-0.002377033233642578,-0.0022676256485283375,-0.0001102712849387899,-0.0011705502402037382,0.074102566,57.043552,Clouds
134730.708,0.0007181800901889801,-0.00044764159247279167,-0.0022547245025634766,0.00023887120187282562,-0.0020648022182285786,-0.0013427159283310175,0.071451984,57.043552,Clouds
134730.738,0.0012316526845097542,-0.00075540691614151,-0.0024532079696655273,0.001792210154235363,0.0002680146135389805,0.0022335785906761885,0.06698165,57.043552,Clouds
134730.767,0.00014620739966630936,-0.0006381971761584282,-0.0027889609336853027,0.00017326651141047478,-0.0005770645220763981,0.0013523516245186329,0.06485724,57.043552,Clouds
134730.797,-8.861534297466278e-05,-0.0015274593606591225,-0.0023006200790405273,-0.0011326828971505165,-0.000352804665453732,0.0005566413165070117,0.05658506,57.043552,Clouds
134730.827,0.0019055670127272606,-0.002805715426802635,-0.0038112998008728027,-0.001499011879786849,-0.0002442605618853122,-0.0007104285759851336,0.052286565,57.043552,Clouds
134730.857,0.001744357869029045,-0.0033156955614686012,-0.0031700730323791504,-0.0007682559080421925,-0.001828348613344133,-0.001671287463977933,0.04850175,57.043552,Clouds
134730.887,0.0003696456551551819,-0.003151305951178074,-0.004161477088928223,-0.001634437358006835,-0.0018259574426338077,0.001585917896591127,0.042712774,57.043552,Clouds
134730.917,-0.00023978576064109802,-0.003722531720995903,-0.00428318977355957,-0.000961812911555171,-0.00044790690299123526,-0.003157171653583646,0.039354015,57.043552,Clouds
134730.946,-0.001153118908405304,0.007352848537266254,-0.001520991325378418,-0.0004384187050163746,-0.0005721040070056915,0.0015558161539956927,0.033213243,57.043552,Clouds
134730.976,-0.0004123663529753685,-0.0019970559515058994,-0.0030008554458618164,0.0009842454455792904,0.0018341008108109236,-0.0005391155136749148,0.031038454,57.043552,Clouds
134731.006,-0.0006452584639191628,0.00027221161872148514,-0.001596987247467041,0.002557239029556513,-0.00016140176740009338,0.0007813422125764191,0.028538004,57.043552,Clouds
134731.036,-0.0013972623273730278,0.001158710103482008,-0.0018864274024963379,-6.958236917853355e-05,-0.0022120485082268715,0.0011292758863419294,0.02440239,57.043552,Clouds
134731.066,0.0011575771495699883,-0.0018175416626036167,-0.0046939849853515625,0.0018882383592426777,0.0010032906429842114,0.00014071131590753794,0.022555312,57.043552,Clouds
134731.096,0.0010598795488476753,-0.00072890380397439,-0.0016876459121704102,-0.0015823452267795801,0.0006538712768815458,-0.0016377486754208803,0.020255517,57.043552,Clouds
134731.126,-0.0003406284376978874,-0.0014558713883161545,-0.003060281276702881,0.00010480405762791634,-0.0007617324590682983,0.0010613348567858338,0.018793145,57.043552,Clouds
134731.155,0.00018964894115924835,-0.001152056735008955,-0.0023735761642456055,0.0005519888363778591,-0.00017804262461140752,0.0005292229470796883,0.017748024,57.043552,Clouds
134731.185,0.00125154759734869,-0.0013160370290279388,-0.0020071864128112793,0.0012154658325016499,-0.0007590034510940313,0.001447285758331418,0.016837366,57.043552,Clouds
134731.215,0.0010460373014211655,-0.0007334616966545582,-0.001640915870666504,-0.0044290125370025635,-6.027775816619396e-05,-0.000470446131657809,0.032591168,57.043552,Clouds
134731.245,-0.00034585781395435333,-0.0009197769686579704,-0.0024036169052124023,-0.0014904974959790707,-0.0004445191007107496,-5.106785101816058e-05,0.06470316,57.043552,Clouds
134731.275,0.0006271796301007271,-0.00041679060086607933,-0.0030748844146728516,-0.0006190030835568905,0.0006554795545525849,-0.0012684693792834878,0.059230607,57.043552,Clouds
134731.305,0.0004960624501109123,-0.001326252706348896,-0.0022202730178833008,-0.0012945635244250298,0.00026817515026777983,0.0005990826175548136,0.14234161,57.043552,Clouds
134731.334,-0.00018603075295686722,-0.001943027600646019,-0.0025867819786071777,-0.0010235607624053955,0.0007013973081484437,0.0004129153967369348,0.13963182,57.043552,Clouds
134731.364,-0.0009485781192779541,-0.0010006818920373917,-0.002662837505340576,-4.909932613372803e-05,-0.0014465487329289317,0.0031363493762910366,0.15605259,57.043552,Clouds
134731.394,0.0011662933975458145,-0.0004062606021761894,-0.0028763413429260254,-0.0011465821880847216,0.00026776912272907794,-0.0006275007035583258,0.1899978,57.043552,Clouds
134731.424,0.0009656623005867004,-0.000678615178912878,-0.00330352783203125,-0.002381229540333152,-0.00023743888596072793,0.0002967116015497595,0.18029346,57.043552,Clouds
134731.453,0.0004864716902375221,-0.0009593386203050613,-0.0029982328414916992,5.674222484230995e-05,0.0007928198901936412,0.0007330969092436135,0.16597296,57.043552,Clouds
134731.483,-5.6912191212177277e-05,-0.0006922325119376183,-0.0022659897804260254,0.00017860159277915955,5.185720510780811e-06,-0.0019371334929019213,0.14443542,57.043552,Clouds
134731.513,-5.1662325859069824e-05,-0.0004112599417567253,-0.00208282470703125,-0.0007298931013792753,-0.00028489407850429416,-0.001626751502044499,0.13267377,57.043552,Clouds
134731.543,0.0017071152105927467,-0.0009858477860689163,-0.0029066801071166992,0.0011824192479252815,0.0015688198618590832,0.000822640024125576,0.10994428,57.043552,Clouds
134731.573,0.0006867712363600731,-0.00026224320754408836,-0.0018535256385803223,0.0008411328308284283,-7.649279723409563e-05,-0.000396893301513046,0.09921757,57.043552,Clouds
134731.603,0.00047976430505514145,-0.0011785691604018211,-0.0021281838417053223,0.0022046524100005627,-0.0023584230802953243,0.00013716850662603974,0.09089195,57.043552,Clouds
134731.633,0.0007651112973690033,-0.0012930026277899742,-0.001960158348083496,0.0006097531877458096,-0.00043487234506756067,-0.0001597756054252386,0.08676117,57.043552,Clouds
134731.663,0.00032955408096313477,-0.0005074730142951012,-0.0030738115310668945,-0.0008259348105639219,-0.0009990588296204805,0.0010470784036442637,0.08482142,57.043552,Clouds
134731.692,2.0153820514678955e-05,-0.00013423850759863853,-0.00191420316696167,-0.0019380066078156233,0.0007213671342469752,-0.0009906899649649858,0.10992884,57.043552,Clouds
134731.722,0.0009500030428171158,-0.001332937739789486,-0.002585887908935547,-0.0006088404916226864,0.0013671655906364322,0.0012357753003016114,0.10987115,57.043552,Clouds
134731.752,0.0009449301287531853,-0.0015415158122777939,-0.0021585822105407715,2.430146560072899e-05,0.00233852700330317,-0.0006898538558743894,0.11030166,57.043552,Clouds
134731.782,0.0009470954537391663,-0.0008155233226716518,-0.0024637579917907715,0.00016112439334392548,-0.0004802380863111466,-0.0005026954459026456,0.13468587,57.043552,Clouds
134731.812,0.0011320654302835464,-0.0006995773874223232,-0.0033489465713500977,-0.00018943939357995987,0.0024219644255936146,0.0011928456369787455,0.13192034,57.043552,Clouds
134731.842,0.0007645078003406525,-0.0008120676502585411,-0.002723217010498047,0.001667544711381197,-0.0015480283182114363,-0.00044341495959088206,0.12874076,57.043552,Clouds
134731.871,0.000535101629793644,-0.0005684588104486465,-0.00195997953414917,-0.0013200053945183754,0.0006480300799012184,0.002039970364421606,0.11773326,57.043552,Clouds
134731.901,0.00012798327952623367,-0.0010000686161220074,-0.0024939775466918945,-0.0007294332608580589,-0.0017171843210235238,0.0029023310635238886,0.111016765,57.043552,Clouds
134731.931,0.0013543134555220604,-0.0007562940008938313,-0.00272291898727417,-0.0012052047532051802,0.001611416577361524,0.0013175603235140443,0.109524935,57.043552,Clouds
134731.961,0.0007384689524769783,-0.0005824207328259945,-0.0022956132888793945,0.0013977489434182644,0.000502526992931962,0.0016010135877877474,0.14750876,57.043552,Clouds
134731.991,-2.492498606443405e-05,-0.0006351461634039879,-0.0021738409996032715,-0.002253342419862747,-0.0006897866260260344,0.0009007336921058595,0.13958916,57.043552,Clouds
134732.020,0.0012256307527422905,-0.0011898721568286419,-0.003440260887145996,-0.001911628758534789,0.0006001328001730144,-0.00041447707917541265,0.13181576,57.043552,Clouds
134732.050,0.0007193172350525856,-0.0016639051027595997,-0.004844009876251221,0.0011479281820356846,0.0022366216871887445,-0.002036767778918147,0.12279005,57.043552,Clouds
134732.080,0.00036050938069820404,-6.458815187215805e-05,-0.001700758934020996,-0.0009257206693291664,0.002341928891837597,0.0009535850258544087,0.24857122,57.043552,Clouds
134732.110,0.000863371416926384,3.588711842894554e-05,0.002190113067626953,0.00157205481082201,0.0011444424744695425,-0.0017278746236115694,0.23141688,57.043552,Clouds
134732.140,0.00019898172467947006,-0.0003129509277641773,-0.004249155521392822,-0.00014903140254318714,0.0020526510197669268,0.0010340326698496938,0.19594015,57.043552,Clouds
134732.170,0.00045462604612112045,-0.0009071202948689461,-0.004096567630767822,0.0015292689204216003,0.0017608653288334608,-0.0006484632031060755,0.17602426,57.043552,Clouds
134732.200,0.00027244817465543747,-0.0007738773711025715,-0.002174079418182373,0.0014608674682676792,0.0018031648360192776,-0.0007689074263907969,0.15809883,57.043552,Clouds
134732.229,0.0006012897938489914,-0.000426742248237133,-0.002342045307159424,0.0011234516277909279,0.0009362791897729039,-0.0009408829500898719,0.1281584,57.043552,Clouds
134732.259,0.00040539074689149857,-0.0007131882011890411,-0.0018997788429260254,-0.0013532477896660566,0.0008340960484929383,0.0005914620705880225,0.116060235,57.043552,Clouds
134732.289,0.0005833785980939865,-0.0012772693298757076,-0.003303706645965576,-0.0007780473679304123,4.548764263745397e-05,-0.001274422975257039,0.09771329,57.043552,Clouds
134732.319,0.000614166259765625,-0.0011081746779382229,-0.0016859769821166992,0.0028555630706250668,-0.0018581155454739928,-0.0020180728752166033,0.09913166,57.043552,Clouds
134732.349,0.0008158022537827492,0.0003268718719482422,-0.0022661685943603516,0.0009708157740533352,0.0004472807049751282,0.00048659025924280286,0.111489445,57.043552,Clouds
134732.379,0.0011541135609149933,-0.00014681974425911903,-0.002388477325439453,-0.00026755896396934986,0.0017467502038925886,0.0020913509652018547,0.10565576,57.043552,Clouds
134732.409,0.001099890097975731,-0.00025114230811595917,-0.002479851245880127,-0.0020963295828551054,0.0023493124172091484,-0.00023620616411790252,0.11843884,57.043552,Clouds
134732.438,-1.1255964636802673e-05,7.632188498973846e-05,-0.0060961246490478516,0.0021544182673096657,0.003014679066836834,-0.0012176812160760164,0.11337048,57.043552,Clouds
134732.468,0.001055368222296238,0.002369367051869631,0.0034859180450439453,-0.0016439130995422602,0.0031502945348620415,-0.0018309425795450807,0.10446279,57.043552,Clouds
134732.498,0.00049570482224226,-0.0002803266979753971,-0.00272446870803833,-0.0012695100158452988,0.0004683839506469667,0.00103124906308949,0.09456858,57.043552,Clouds
134732.528,-0.00029323529452085495,-0.0020329044200479984,-0.0055474042892456055,-0.00030652573332190514,-0.0010893361177295446,0.0008869038429111242,0.084843054,57.043552,Clouds
134732.558,0.0006745560094714165,-0.0014766426756978035,-0.0019763708114624023,-0.0033296900801360607,-0.0038216249085962772,-2.896646037697792e-05,0.09730106,57.043552,Clouds
134732.587,0.001618366688489914,0.00014389865100383759,-0.0001907944679260254,0.0002600867301225662,0.0005837296484969556,-0.00014797307085245848,0.096070506,57.043552,Clouds
134732.617,0.00039087049663066864,-0.0005214852280914783,-0.0025403499603271484,-0.0012979675084352493,0.002529679099097848,0.000622723251581192,0.09938796,57.043552,Clouds
134732.647,0.00028352439403533936,-0.0004216274246573448,-0.0025557279586791992,-0.002436961280182004,0.002245979616418481,-0.00025077746249735355,0.12317663,57.043552,Clouds
134732.677,0.0007316982373595238,-0.0004480103962123394,-0.0011367201805114746,0.0018586604855954647,-0.0005547933396883309,-0.0007095452747307718,0.11237467,57.043552,Clouds
134732.706,0.00034757889807224274,0.00010272720828652382,-0.0032883882522583008,-0.0008458697702735662,-0.0013660421827808022,0.0022643108386546373,0.10265014,57.043552,Clouds
134732.737,0.00041999202221632004,-0.0006400900892913342,-0.0024338364601135254,-0.0006881162989884615,-0.002704099053516984,-0.00015357625670731068,0.094288826,57.043552,Clouds
134732.766,0.0004915157333016396,-0.0004273257218301296,-0.0019300580024719238,-0.0004356028512120247,-0.0003809803747572005,0.00042941843275912106,0.08630669,57.043552,Clouds
134732.796,0.00044577009975910187,-0.0012348843738436699,-0.0024332404136657715,0.0025352290831506252,-0.001362887560389936,0.0020052907057106495,0.08372778,57.043552,Clouds
134732.826,0.001972656697034836,-0.0010656225495040417,-0.002707958221435547,0.0016677482053637505,-0.0005790500435978174,-0.001560573698952794,0.07873304,57.043552,Clouds
134732.856,0.0005956310778856277,-0.0015019024722278118,-0.003745555877685547,-0.00113331014290452,0.0016753720119595528,1.8859223928302526e-05,0.0750271,57.043552,Clouds
134732.886,0.0002974607050418854,0.0002666302025318146,-0.0015024542808532715,-0.00027488404884934425,-0.0006814352818764746,-0.00041955558117479086,0.071578816,57.043552,Clouds
134732.915,0.00158690195530653,-0.00030284468084573746,-0.0018073320388793945,-0.0003837526310235262,0.0021172647830098867,-0.002995087066665292,0.09872672,57.043552,Clouds
134732.945,0.0007521128281950951,-0.00028742896392941475,-0.00252455472946167,-0.0005240277387201786,0.0006961749168112874,-0.0005464620771817863,0.0957426,57.043552,Clouds
134732.975,-0.00021393503993749619,-0.0006189132109284401,-0.002784252166748047,-0.0009543681517243385,0.0002612696262076497,-0.0011329313274472952,0.08198195,57.043552,Clouds
134733.005,0.0011174911633133888,-0.0009403214789927006,-0.00125885009765625,0.0016739810816943645,-0.0026281417813152075,-0.00018103793263435364,0.07863686,57.043552,Clouds
134733.035,0.000841701403260231,-0.001072598621249199,-0.003654658794403076,-0.0006173860747367144,0.0003961566253565252,0.0012591906124725938,0.07895639,57.043552,Clouds
134733.064,0.0006017880514264107,-0.0008188472129404545,-0.0016862154006958008,0.004421972203999758,-0.0017398602794855833,6.418506382033229e-05,0.1208648,57.043552,Clouds
134733.094,0.0008556265383958817,-0.0014364761300384998,-0.0029221773147583008,-0.00018553854897618294,-0.0020605074241757393,0.0007952161831781268,0.112391,57.043552,Clouds
134733.124,-0.0002635978162288666,0.00024106400087475777,-0.0049059391021728516,0.001870268490165472,-0.002752679632976651,0.0023671931121498346,0.102085836,57.043552,Clouds
134733.154,0.0012293057516217232,7.88513571023941e-05,5.3048133850097656e-05,-0.0004134031478315592,-0.0024664103984832764,-0.0006865004543215036,0.097040236,57.043552,Clouds
134733.184,0.0029961830005049706,-0.004116318188607693,0.011893749237060547,-7.876334711909294e-05,-0.0028119951020926237,-0.0004946435801684856,0.09368517,57.043552,Clouds
134733.214,-0.0008599590510129929,0.0006200391799211502,-0.0023731589317321777,0.0023026177659630775,-0.0004791955288965255,-0.0009488845826126635,0.08089824,57.043552,Clouds
134733.244,-0.0009731659665703773,0.0006028083153069019,-0.010017871856689453,0.00145344203338027,-0.002406890969723463,0.0006478153518401086,0.07536008,57.043552,Clouds
134733.274,0.00305064395070076,-0.001820886041969061,-0.001289963722229004,0.000537410844117403,-0.00030760251684114337,-0.001040289644151926,0.07048808,57.043552,Clouds
134733.303,0.0003078002482652664,-0.0010611452162265778,0.0006324648857116699,0.0007674912922084332,0.000864544534124434,-0.0003419479471631348,0.06584179,57.043552,Clouds
134733.333,-0.0017629917711019516,0.0001047416590154171,-0.003655374050140381,-0.002283308655023575,-0.000477466091979295,-0.003921295050531626,0.066605106,57.043552,Clouds
134733.363,0.0012705428525805473,-0.0005008089356124401,-0.005135774612426758,0.0016556335613131523,-0.0007460368797183037,-0.001526023494079709,0.06984557,57.043552,Clouds
134733.393,0.0035923095420002937,-0.0018805940635502338,-0.0022823214530944824,0.002066879067569971,-0.0016390440287068486,0.002357842866331339,0.06705767,57.043552,Clouds
134733.422,-0.0005983347073197365,1.9396189600229263e-05,-0.0007715225219726562,-0.00214370246976614,-0.00010071101860376075,-0.0014083744026720524,0.15706144,57.043552,Clouds
134733.452,-0.0019034119322896004,-0.000655266921967268,-0.0034416913986206055,0.0014587067998945713,-0.0011143077863380313,0.0009469238575547934,0.14574248,57.043552,Clouds
134733.482,0.0021391399204730988,-0.0009254142642021179,-0.0037471652030944824,-0.00011381693184375763,-0.0012509293155744672,0.00034183330717496574,0.13388084,57.043552,Clouds
134733.512,0.0021694600582122803,-0.0005986536853015423,-0.0018853545188903809,8.021527901291847e-05,-0.0003449341165833175,0.0011370610445737839,0.11318268,57.043552,Clouds
134733.542,-6.440095603466034e-05,-0.0015665125101804733,-0.0020679831504821777,0.003547915257513523,-0.000691461842507124,0.00104886619374156,0.10319146,57.043552,Clouds
134733.572,-5.2566640079021454e-05,-0.00116273807361722,-0.00251007080078125,-0.0029088566079735756,-0.0019818313885480165,-0.00018692587036639452,0.08973225,57.043552,Clouds
134733.602,0.0020362036302685738,-0.000961079727858305,-0.002495110034942627,0.0008579902350902557,0.0002714454894885421,-0.0002331360592506826,0.082977295,57.043552,Clouds
134733.631,0.0016611767932772636,-0.0005980962887406349,-0.002708911895751953,-0.0012897707056254148,-0.0015018486883491278,-0.00019107013940811157,0.080144204,57.043552,Clouds
134733.661,-0.0015149042010307312,-0.0006303517147898674,-0.0021898746490478516,-0.0006697205826640129,-0.00013896999007556587,0.000829024356789887,0.07631155,57.043552,Clouds
134733.691,0.0014565447345376015,-8.201040327548981e-05,-0.002266108989715576,-0.001306207850575447,-0.000512300874106586,0.001409744843840599,0.072470866,57.043552,Clouds
134733.721,0.0006221076473593712,-0.0002725450322031975,-0.002540886402130127,-0.0007657320238649845,-0.0014679451705887914,-0.00021323637338355184,0.08274019,57.043552,Clouds
134733.751,2.540554851293564e-05,-0.0009575714357197285,-0.002006828784942627,-0.00345290987752378,0.00048479571705684066,-0.00017187336925417185,0.07968684,57.043552,Clouds
134733.781,-0.0002722768113017082,-0.0005831331945955753,-0.0023882389068603516,-0.0025291205383837223,-0.00035562535049393773,-0.0016457200981676579,0.074883096,57.043552,Clouds
134733.810,0.0013384930789470673,-0.0008543441072106361,-0.001595139503479004,0.00010781269520521164,5.1029681344516575e-05,-0.0013329482171684504,0.06500211,57.043552,Clouds
134733.840,0.00018089823424816132,-0.00100668054074049,-0.0021138787269592285,-0.00013030972331762314,0.0009891039226204157,0.0003841755969915539,0.05992906,57.043552,Clouds
134733.870,0.0001634480431675911,-0.001031598076224327,-0.003777027130126953,0.002106054686009884,-0.0016644290881231427,0.00034881752799265087,0.15275456,57.043552,Clouds
134733.899,0.0005789250135421753,-0.0007299305871129036,-0.0019307732582092285,-0.0020186074543744326,-0.0009799612453207374,-0.002812697784975171,0.20175233,57.043552,Clouds
134733.930,0.0010660085827112198,-0.0009299037046730518,-0.0012897253036499023,-0.0007474753074347973,0.002096309792250395,0.0004476138565223664,0.22248822,57.043552,Clouds
134733.960,0.0006235036998987198,-0.00027670618146657944,-0.0034410953521728516,0.0006434540264308453,-0.0008848143042996526,-0.0004285518079996109,0.20291859,57.043552,Clouds
134733.989,0.00045761745423078537,-3.784243017435074e-05,-0.003334522247314453,-0.003072618041187525,-0.00035089091397821903,0.001613731263205409,0.19256712,57.043552,Clouds
134734.019,-0.00019068550318479538,-0.0002284003421664238,-0.0020528435707092285,-0.000544039299711585,0.001086141332052648,0.0029970628675073385,0.16353695,57.043552,Clouds
134734.049,0.00236306618899107,0.00016217026859521866,-0.0015184283256530762,0.0003318074159324169,-0.0010444850195199251,-0.0007724507013335824,0.15551916,57.043552,Clouds
134734.078,0.0005914093926548958,-0.0005306079983711243,-0.0034105777740478516,-0.0012034426908940077,-0.00014741631457582116,-2.4255597963929176e-05,0.14824149,57.043552,Clouds
134734.109,-0.000558909960091114,-0.0007560155354440212,-0.0033344030380249023,0.0012594778090715408,0.00017241938621737063,0.001021107891574502,0.1304846,57.043552,Clouds
134734.138,0.001133916899561882,-0.000542858149856329,-0.003090381622314453,0.0004771789535880089,0.001072772080078721,0.0019564826507121325,0.12110237,57.043552,Clouds
134734.168,0.0010609207674860954,-0.00014450913295149803,-0.0034717321395874023,-4.049250856041908e-05,0.0018448169576004148,-0.0016869730316102505,0.10727,57.043552,Clouds
134734.198,-0.0008927080780267715,-0.00012363912537693977,-0.0026937127113342285,-0.002623089123517275,0.00017948821187019348,-0.00017086451407521963,0.10183836,57.043552,Clouds
134734.228,-0.0007575815543532372,-0.0005892626941204071,-0.002983570098876953,-0.0018523451872169971,0.0009550941176712513,0.0005185187328606844,0.09881155,57.043552,Clouds
134734.258,0.0018624896183609962,-0.0005196924321353436,-0.0021903514862060547,-0.00322819990105927,-0.00022248798632062972,0.0011462027905508876,0.09537831,57.043552,Clouds
134734.288,0.001287601888179779,-0.0006462358869612217,-0.002144455909729004,0.005071061663329601,0.0004465102101676166,0.0002582129673101008,0.091717444,57.043552,Clouds
134734.317,7.280614227056503e-05,-0.001114837359637022,-0.0024040937423706055,-0.0009406674653291702,-0.001122778165154159,-0.0009169041295535862,0.10614695,57.043552,Clouds
134734.347,0.0003621727228164673,-0.00026023201644420624,-0.0029686689376831055,0.0020447876304388046,0.00030029594199731946,0.0005429958691820502,0.09936985,57.043552,Clouds
134734.377,0.0019033309072256088,-0.0008495496585965157,-0.002800881862640381,-0.002905164612457156,-9.529662929708138e-05,0.004482538904994726,0.093425706,57.043552,Clouds
134734.407,-0.00034625735133886337,-0.0009759548120200634,-0.0026329755783081055,0.0016435072757303715,0.0013836775906383991,-0.00039526965701952577,0.08379001,57.043552,Clouds
134734.437,-0.00017750822007656097,-0.0017874063923954964,-0.0033960342407226562,0.0019317073747515678,0.0004105627303943038,-0.00033932412043213844,0.08095528,57.043552,Clouds
134734.467,-0.00011820904910564423,-0.0006431075744330883,-0.0017635822296142578,-0.00221871305257082,-6.523529009427875e-05,0.0004262040602043271,0.07170931,57.043552,Clouds
134734.496,0.0022363206371665,-0.0005465210415422916,-0.003075838088989258,0.0006277193315327168,0.0009618141921237111,-0.0006674242322333157,0.06741856,57.043552,Clouds
134734.527,6.865430623292923e-05,-0.0002710167318582535,-0.0016567707061767578,0.001192004419863224,-0.00149006606079638,-0.0023460350930690765,0.06122068,57.043552,Clouds
134734.556,4.9326568841934204e-05,-0.001212146133184433,-0.0013821125030517578,-0.0015735260676592588,0.0018569855019450188,-0.0016908110119402409,0.052168507,57.043552,Clouds
134734.586,0.0014526154845952988,-0.001154583878815174,-0.002587735652923584,7.556425407528877e-05,0.00042874686187133193,0.0006844697054475546,0.04895813,57.043552,Clouds
134734.616,0.0009686043485999107,-0.00104060722514987,-0.0028777122497558594,-0.0006442698650062084,0.0013274789089336991,0.0005570405046455562,0.06691822,57.043552,Clouds
134734.646,0.00033786799758672714,-0.0009647305123507977,-0.0035799145698547363,-0.0001158819068223238,-0.0015569495735689998,-0.00112612871453166,0.14439113,57.043552,Clouds
134734.676,0.00030726194381713867,-0.00017981650307774544,-0.0023441314697265625,-0.0022537047043442726,-1.7423932149540633e-05,0.0005002496764063835,0.1342922,57.043552,Clouds
134734.705,0.00047327298671007156,-0.00032650819048285484,-0.002161264419555664,-0.0007327990606427193,0.0005981468711979687,0.003359162714332342,0.13051192,57.043552,Clouds
134734.735,0.0009344965219497681,-7.452070713043213e-05,-0.002359628677368164,-0.003019552445039153,-0.001759737846441567,-7.834064308553934e-05,0.12469106,57.043552,Clouds
134734.765,0.0007532928138971329,0.0001247301697731018,-0.0019325017929077148,-0.0008931297343224287,0.0014022979885339737,0.0026614542584866285,0.11653444,57.043552,Clouds
134734.795,0.0005589397624135017,-0.0019124574027955532,-0.002573370933532715,0.0015702811069786549,-0.0008177573909051716,0.0019761240109801292,0.11103073,57.043552,Clouds
134734.825,0.0007556155323982239,-0.0010544313117861748,-0.0026955604553222656,-0.0016775496769696474,0.0012723383260890841,-0.0011898553930222988,0.10865476,57.043552,Clouds
134734.854,-0.0005167461931705475,-0.00028021354228258133,-0.0018715262413024902,-0.001052540959790349,0.0002505818265490234,0.0016420690808445215,0.0938734,57.043552,Clouds
134734.884,-0.00019219610840082169,0.00011633150279521942,-0.0033516883850097656,-0.001952114049345255,0.000920420978218317,-0.00027303455863147974,0.08528587,57.043552,Clouds
134734.914,0.00018888060003519058,-0.0011958060786128044,-0.0037178397178649902,0.0018682070076465607,0.0010144910775125027,0.0027498197741806507,0.07117875,57.043552,Clouds
134734.944,0.0011800499632954597,5.17391599714756e-05,-0.0028330087661743164,0.00026020361110568047,-0.000754423497710377,-0.0005544375744648278,0.0650761,57.043552,Clouds
134734.974,-0.00010635796934366226,-5.440879613161087e-05,-0.003519773483276367,-0.001986987190321088,-0.001021494041197002,-0.000609008246101439,0.060727216,57.043552,Clouds
134735.004,0.0004707649350166321,-0.0008326293900609016,-0.003077089786529541,-0.0008983851876109838,0.0011734517756849527,-5.0756148993968964e-05,0.05750548,57.043552,Clouds
134735.033,0.0015875846147537231,-0.00011807680130004883,-0.0015515685081481934,0.002941231708973646,0.0016456244047731161,-0.002031996613368392,0.06416613,57.043552,Clouds
134735.063,-0.00031814444810152054,9.560678154230118e-05,-0.0029555559158325195,-0.0008716334123164415,-0.0015931092202663422,0.0005796912009827793,0.057883386,57.043552,Clouds
134735.093,0.0010662181302905083,-0.0011133537627756596,-0.002359926700592041,-0.0003063871990889311,-0.0003562151687219739,-0.0014613232342526317,0.056905143,57.043552,Clouds
134735.123,0.0010235775262117386,4.3688807636499405e-05,-0.002558410167694092,-0.002294893842190504,6.712481990689412e-05,0.0006552286213263869,0.06695625,57.043552,Clouds
134735.153,-0.00017779506742954254,-0.0009856992401182652,-0.002635061740875244,0.001926247961819172,-0.0002989628992509097,0.0009548406815156341,0.091307744,57.043552,Clouds
134735.183,-0.0008343253284692764,-0.0008199498988687992,-0.0035808682441711426,0.0008201343007385731,0.0016437292797490954,0.000428555445978418,0.09119987,57.043552,Clouds
134735.212,0.000513564795255661,9.746477007865906e-05,-0.0030778050422668457,-0.002766104880720377,0.000789745943620801,-0.0034764062147587538,0.11387992,57.043552,Clouds
134735.242,0.00090017169713974,0.0002583898603916168,-0.003138720989227295,0.0005736453458666801,0.0002843832189682871,0.00028000090969726443,0.11373591,57.043552,Clouds
134735.272,0.0002371305599808693,-0.0010380339808762074,-0.0027114152908325195,0.0036889412440359592,-2.6460065782885067e-05,-0.00023507635341957211,0.10886178,57.043552,Clouds
134735.302,0.0008523911237716675,5.243532359600067e-05,-0.001399219036102295,-0.0009181853383779526,-0.00031703265267424285,0.0008588514756411314,0.09200461,57.043552,Clouds
134735.332,0.000530545599758625,-0.0001714620739221573,-0.0022996068000793457,-6.894744001328945e-05,0.00042012822814285755,-0.0025328609626740217,0.08538141,57.043552,Clouds
134735.362,0.00014245789498090744,-0.00041261641308665276,-0.002177715301513672,-0.00030771829187870026,0.004323192406445742,0.0009379126131534576,0.07425161,57.043552,Clouds
134735.392,0.0016354331746697426,-0.0012195906601846218,-0.0025898218154907227,-0.00039475178346037865,-0.0006836869288235903,0.00016686232993379235,0.06860344,57.043552,Clouds
134735.421,-0.00014089513570070267,0.000479208305478096,-0.0020864009857177734,0.0030416366644203663,0.002796468324959278,-0.0009848031913861632,0.0635801,57.043552,Clouds
134735.451,-0.001673378050327301,-0.0008839638903737068,-0.002727687358856201,-0.0011442205868661404,-0.001537543023005128,0.0016743636224418879,0.058058072,57.043552,Clouds
134735.481,0.001093733124434948,-0.0003544134087860584,-0.0021477937698364258,0.0029244092293083668,-0.001636822009459138,0.0029286008793860674,0.058084883,57.043552,Clouds
134735.511,0.0007191319018602371,-0.00026070093736052513,-0.0019955039024353027,0.0014376039616763592,-0.00030902179423719645,-0.0009509269148111343,0.052550923,57.043552,Clouds
134735.541,-0.0005901753902435303,0.00035978062078356743,-0.0028498172760009766,-0.002001402201130986,0.0013482701033353806,0.0012721156235784292,0.04832193,57.043552,Clouds
134735.570,-0.0007330924272537231,-0.000754043459892273,-0.0032616257667541504,-3.0807917937636375e-05,-0.000492201535962522,-0.00017086538719013333,0.04531025,57.043552,Clouds
134735.600,0.000990055501461029,-0.00021939072757959366,-0.002590179443359375,0.0016869418323040009,0.0015657683834433556,0.0008856590138748288,0.038654115,57.043552,Clouds
134735.630,3.698933869600296e-05,4.537869244813919e-06,-0.002956688404083252,6.186962127685547e-05,-0.002417490817606449,0.0010109363356605172,0.0362739,57.043552,Clouds
134735.660,-0.001928112469613552,-0.0014354754239320755,-0.003353714942932129,-0.0008158243726938963,0.0006844616727903485,-0.0011362627847120166,0.034878016,57.043552,Clouds
134735.690,0.0013989703729748726,0.000585777685046196,-0.002972722053527832,5.729077383875847e-05,0.001183627638965845,0.0011776163009926677,0.03367991,57.043552,Clouds
134735.719,0.004678849130868912,-5.00241294503212e-05,-0.0029116272926330566,2.2752676159143448e-05,-0.0016758370911702514,-3.0308496206998825e-05,0.03572782,57.043552,Clouds
134735.749,0.007670248858630657,-0.0037958547472953796,-0.0031099915504455566,7.971050217747688e-05,0.0011707493104040623,0.0012633095029741526,0.031596884,57.043552,Clouds
134735.779,-0.008620436303317547,0.005622946657240391,-0.0011112093925476074,-0.0019725672900676727,-0.00205400213599205,0.00034870702074840665,0.029213691,57.043552,Clouds
134735.809,-0.005560753867030144,0.0011463109403848648,-0.002484261989593506,0.0010048015974462032,-0.003127502277493477,-0.0008370134164579213,0.026673602,57.043552,Clouds
134735.839,0.010861622169613838,-0.004617967642843723,-0.0032626986503601074,0.0016191150061786175,0.000380969257093966,0.0021420507691800594,0.0374959,57.043552,Clouds
134735.869,0.0033936426043510437,-0.0008608568459749222,-0.002957463264465332,0.0008642137981951237,-0.0009680560324341059,-0.0006379974656738341,0.046783153,57.043552,Clouds
134735.899,-0.008380680344998837,0.002191010396927595,-0.0029421448707580566,-0.002109663560986519,0.0016688047908246517,-0.0006419410347007215,0.039214224,57.043552,Clouds
134735.928,0.0003396579995751381,-0.0016233962960541248,-0.004636526107788086,-4.4442713260650635e-06,0.002286019269376993,0.0002875329810194671,0.03565587,57.043552,Clouds
134735.958,0.0063134608790278435,-0.0009314664639532566,-0.0004099607467651367,-0.0008094275835901499,0.0012742604594677687,0.0002417920040898025,0.032855403,57.043552,Clouds
134735.988,-0.001962267793715,-0.0008876882493495941,-0.004178881645202637,0.003837680909782648,-0.0010278576519340277,-0.003228315617889166,0.046976365,57.043552,Clouds
134736.018,-0.00506469514220953,-0.0003290013410151005,-0.002760171890258789,-0.0019072347786277533,0.00140626251231879,-1.4087825547903776e-05,0.044794172,57.043552,Clouds
134736.048,0.0015961332246661186,-0.00035957712680101395,-0.0019669532775878906,0.0009932182729244232,-0.0008013624465093017,-0.0002422237303107977,0.038913585,57.043552,Clouds
134736.077,0.004592474550008774,-7.257051765918732e-05,-0.001997649669647217,0.0004078582860529423,0.0001280252618016675,-0.0024042280856519938,0.035258204,57.043552,Clouds
134736.108,-0.002320794388651848,-0.0012808376923203468,-0.003203094005584717,0.0016515497118234634,-0.0001538713986519724,-0.0017207178752869368,0.032982793,57.043552,Clouds
134736.137,-0.0030347658321261406,3.662053495645523e-05,-0.002867460250854492,0.0005537522956728935,-0.0006212506559677422,0.00028095440939068794,0.029480899,57.043552,Clouds
134736.167,0.002679380588233471,0.0005104192532598972,-0.0023794174194335938,0.0020157964900135994,-0.0011681041214615107,-0.0010747314663603902,0.02748251,57.043552,Clouds
134736.197,0.0025405194610357285,-0.0012552924454212189,-0.0016318559646606445,0.002629722934216261,0.0011308620451018214,-0.002491906052455306,0.02614951,57.043552,Clouds
134736.227,-0.002370712347328663,5.597015842795372e-05,-0.0037682652473449707,-0.00046494207344949245,-0.0008807398844510317,-0.0019213891355320811,0.038244765,57.043552,Clouds
134736.257,-0.0032209260389208794,0.00035460758954286575,-0.0024562478065490723,8.620182052254677e-05,-0.0003914771950803697,0.0008176966803148389,0.035595234,57.043552,Clouds
134736.287,0.0033134743571281433,-0.0003313198685646057,-0.0018919706344604492,0.0025880360044538975,-5.486210284288973e-06,0.0007389570819213986,0.031432718,57.043552,Clouds
134736.316,0.0007473286241292953,-6.804894655942917e-05,-0.0018925666809082031,0.0014298739843070507,-0.0025929464027285576,-0.0014280170435085893,0.029989764,57.043552,Clouds
134736.346,-0.003428102470934391,0.0005449387244880199,-0.0028690695762634277,-0.00022461125627160072,-0.000516381929628551,0.0012416183017194271,0.06392037,57.043552,Clouds
134736.376,0.0016910713165998459,0.0002860315144062042,-0.002853989601135254,0.000526688527315855,-0.0003202012157998979,0.0006504192133434117,0.061004654,57.043552,Clouds
134736.406,0.00238979235291481,-0.0011231047101318836,-0.0031898021697998047,0.0030124508775770664,-0.002759949304163456,0.0008934771176427603,0.058163874,57.043552,Clouds
134736.436,-0.0010044677183032036,-0.0005018599331378937,-0.0034030675888061523,0.002700868993997574,-0.0036891780328005552,-0.0014353722799569368,0.050665993,57.043552,Clouds
134736.466,-0.0018075425177812576,9.74913127720356e-05,-0.0017402172088623047,-0.0018314933404326439,-0.0009609236149117351,0.0013611485483124852,0.04685539,57.043552,Clouds
134736.495,0.001710730604827404,0.00020489376038312912,-0.0037088394165039062,-0.00030345702543854713,-0.000689120264723897,0.0013996507041156292,0.03950468,57.043552,Clouds
134736.525,0.0018007792532444,0.0006439411081373692,-0.0027628540992736816,0.0005177734419703484,-0.0013392316177487373,-0.002351132920011878,0.036447894,57.043552,Clouds
134736.555,-0.0016247937455773354,-0.00018053315579891205,-0.0026407837867736816,0.0006418297998607159,0.00023884340771473944,-0.0017109172185882926,0.033157997,57.043552,Clouds
134736.585,-0.0005864622071385384,-0.0002718358300626278,-0.00274735689163208,-0.0005129149649292231,0.00022086064564064145,-0.0005807048873975873,0.027680183,57.043552,Clouds
134736.615,0.002337925136089325,-0.00024282559752464294,-0.0021825432777404785,-0.0015217945910990238,-0.001034958753734827,0.0007938782218843699,0.026063753,57.043552,Clouds
134736.645,-0.0007966868579387665,0.000689950305968523,-0.0028693675994873047,0.0005932454951107502,-0.00021408774773590267,0.0013427629601210356,0.022744168,57.043552,Clouds
134736.674,-0.0019802283495664597,-0.0008864155970513821,-0.0023655295372009277,0.0013799266889691353,-0.002066296525299549,0.0020122635178267956,0.021286312,57.043552,Clouds
134736.704,0.00033877231180667877,-0.00064872857183218,-0.0029911398887634277,0.0048815845511853695,-0.000883688626345247,-0.0012896055122837424,0.019503796,57.043552,Clouds
134736.734,0.0017180824652314186,0.0013645361177623272,-0.002670764923095703,0.000541850458830595,0.00021412011119537055,-0.0006606478709727526,0.017008506,57.043552,Clouds
134736.764,-0.000652652233839035,-9.78400930762291e-06,-0.003418445587158203,0.00039833923801779747,0.00044099436490796506,0.0034789806231856346,0.016426284,57.043552,Clouds
134736.794,-0.00016995705664157867,-1.3535842299461365e-05,-0.002777695655822754,-0.00021873228251934052,-0.0010959095088765025,-0.0016978848725557327,0.014815279,57.043552,Clouds
134736.823,0.0019099442288279533,-0.0004969765432178974,-0.0028690099716186523,-0.001085866242647171,-0.0017298894235864282,0.0001629150938242674,0.01398468,57.043552,Clouds
134736.853,0.0006804345175623894,-4.0431972593069077e-05,-0.003036975860595703,0.0004333346150815487,-0.00116814486682415,0.0005575621034950018,0.013764081,57.043552,Clouds
134736.883,-0.002023608423769474,0.000462542288005352,-0.0017094612121582031,0.0006502126343548298,0.0011423369869589806,0.00025118584744632244,0.012568548,57.043552,Clouds
134736.913,9.380560368299484e-05,8.042901754379272e-06,-0.0024724602699279785,0.0021936679258942604,0.0012046967167407274,0.0008587817428633571,0.012544532,57.043552,Clouds
134736.943,0.0020114099606871605,0.00027442164719104767,-0.002853870391845703,-0.004559917375445366,-0.0006187331164255738,-0.002603782806545496,0.012695748,57.043552,Clouds
134736.973,-0.0002172812819480896,0.00019596191123127937,-0.0034793615341186523,0.0005028420127928257,-0.0005507662426680326,0.0002509799087420106,0.03580525,57.043552,Clouds
134737.002,-0.0015142066404223442,-6.869668141007423e-05,-0.0025486350059509277,7.602991536259651e-05,-0.00027227908140048385,0.0003963468479923904,0.03362376,57.043552,Clouds
134737.032,0.0009474270045757294,0.0004157586954534054,-0.0024417638778686523,-0.001384468749165535,-0.0004847992677241564,0.0034627621062099934,0.053224273,57.043552,Clouds
134737.062,0.0014502517879009247,-0.000954141840338707,-0.002609550952911377,-0.0011695502325892448,-0.00043169179116375744,-0.00036340701626613736,0.05155652,57.043552,Clouds
134737.091,-0.001071639358997345,-0.0005835024639964104,-0.003082275390625,0.00034240633249282837,0.0012750900350511074,-0.0016556067857891321,0.11400849,57.043552,Clouds
134737.122,-0.0006225584074854851,0.00037177838385105133,-0.0017247796058654785,0.0005226321518421173,-0.00022015292779542506,-0.000935442978516221,0.106118254,57.043552,Clouds
134737.152,0.001256241463124752,0.00014626746997237206,-0.0019690394401550293,-0.003148614428937435,-0.0004466021782718599,-0.00024817942176014185,0.09987606,57.043552,Clouds
134737.181,-5.068257451057434e-06,5.1219481974840164e-05,-0.0027930736541748047,6.613787263631821e-05,0.0011596655240282416,0.0010436233133077621,0.092399605,57.043552,Clouds
134737.211,-0.0007930099964141846,8.066324517130852e-05,-0.0031743645668029785,-0.0005618573632091284,0.0016856682486832142,-4.03296435251832e-05,0.086816676,57.043552,Clouds
134737.241,-0.00038328859955072403,0.0005669179372489452,-0.007126569747924805,-0.0013175129424780607,-0.00014834028843324631,0.00015099166193976998,0.07793131,57.043552,Clouds
134737.271,0.0006222547963261604,-0.0005849460139870644,1.4543533325195312e-05,-0.003465989138931036,0.0011011043097823858,-0.0004714055103249848,0.07408465,57.043552,Clouds
134737.301,0.00030295830219984055,-0.00031531089916825294,-0.0012063980102539062,0.0004402431659400463,0.002839199034497142,0.0011332491412758827,0.083642714,57.043552,Clouds
134737.331,-0.00048696063458919525,0.0002665114589035511,-0.0036940574645996094,-0.0006617463659495115,0.0022277075331658125,-0.0002638052683323622,0.07338084,57.043552,Clouds
134737.360,0.0018366072326898575,-0.00029945140704512596,-0.003358900547027588,0.0035524447448551655,0.005358332768082619,-0.2710062265396118,0.06995209,57.043552,Clouds
134737.390,-0.012999100610613823,0.0036224513314664364,-0.001757800579071045,0.004892690572887659,0.0005702420021407306,-0.4376164972782135,0.08726862,57.043552,Clouds
134737.420,-0.013120107352733612,0.00515573937445879,-0.0043978095054626465,0.0015898840501904488,0.0008160766446962953,-0.2617866098880768,0.08997914,57.043552,Clouds
134737.450,-0.005234736017882824,0.0032814908772706985,-0.002871990203857422,0.0056025139056146145,-0.0011453165207058191,-0.2072804868221283,0.0845686,57.043552,Clouds
134737.480,-0.010742573998868465,0.005703778471797705,-0.002047896385192871,0.003114684484899044,-0.0005355197354219854,-0.1332610845565796,0.07932899,57.043552,Clouds
134737.510,-0.014196877367794514,0.005487679038196802,-0.0018954277038574219,0.00034878263249993324,0.0014949311735108495,-0.04088873788714409,0.08152182,57.043552,Clouds
134737.539,-0.002409977838397026,0.0016305651515722275,-0.003146648406982422,-0.0011990403290838003,0.0011262324405834079,0.0005524811567738652,0.075998604,57.043552,Clouds
134737.569,0.0005101338028907776,-0.00038883695378899574,-0.003756880760192871,0.0026665148325264454,0.0021927643101662397,0.0013331875670701265,0.074303225,57.043552,Clouds