Timestamp,AccelX,AccelY,AccelZ,GyroX,GyroY,GyroZ,AudioLevel,LightLevel,Weather
134806.580,0.0028836727142333984,-0.0009167422540485859,-0.0014554858207702637,9.851949289441109e-05,0.003404370043426752,-0.0009341894765384495,0.12849542,57.043552,Clouds
134806.610,0.0010942146182060242,-0.0019489317201077938,-0.00021958351135253906,-0.0003500215243548155,0.0010593936312943697,-0.001397922053001821,0.11179465,57.043552,Clouds
134806.640,0.0021439986303448677,-0.002029154449701309,-0.001257479190826416,-0.0008785522077232599,0.0003002927405759692,-0.0010054868180304766,0.109213635,57.043552,Clouds
134806.670,0.004104587249457836,-0.0020036916248500347,-0.001730501651763916,0.00044531701132655144,-0.0005344888777472079,0.0001114210463128984,0.10666658,57.043552,Clouds
134806.700,0.0020588133484125137,-0.0015972303226590157,-0.0017001032829284668,0.0005740365013480186,-0.0008198728901334107,0.001040017930790782,0.096034095,57.043552,Clouds
134806.730,9.14987176656723e-05,-0.001805721316486597,-0.0015017390251159668,-0.004702637903392315,-2.9720162274315953e-05,0.0016162763349711895,0.09182881,57.043552,Clouds
134806.760,0.0035460377112030983,-0.002841455861926079,-0.0013952255249023438,0.0005470924079418182,-0.0005275000003166497,0.0004718661948572844,0.078383885,57.043552,Clouds
134806.790,0.0036277128383517265,-0.0024289553984999657,-0.0019145011901855469,0.0003627657424658537,-0.0011331710265949368,0.0008277571760118008,0.07726702,57.043552,Clouds
134806.819,0.0013616438955068588,-0.0014195041730999947,-0.0005414485931396484,0.003137649269774556,-0.002312022726982832,-0.00032665726030245423,0.07186131,57.043552,Clouds
134806.849,0.0013701049610972404,-0.0014421544037759304,-0.0018998384475708008,0.0032427827827632427,-0.0004629882168956101,0.0029906320851296186,0.06464243,57.043552,Clouds
134806.879,0.0034683989360928535,-0.001801764126867056,-0.0011373162269592285,0.0003023352473974228,-0.0010326618794351816,-0.0024947887286543846,0.06240792,57.043552,Clouds
134806.909,0.002341458573937416,-0.0021144403144717216,-0.0006034374237060547,0.000943418825045228,-6.741643301211298e-05,9.283825056627393e-05,0.058258243,57.043552,Clouds
134806.939,0.0009243972599506378,-0.0019180490635335445,-0.002464890480041504,-0.0005537534598261118,-0.0009524381021037698,-0.0014920580433681607,0.054990288,57.043552,Clouds
134806.969,0.0028971992433071136,-0.0011312044225633144,-0.0018247365951538086,0.0034455847926437855,0.00037406320916488767,-0.0013567255809903145,0.050098937,57.043552,Clouds
134806.998,0.003262210637331009,-0.002235112711787224,-0.002038717269897461,0.0004426809027791023,0.002159360097721219,-1.295894617214799e-05,0.046404228,57.043552,Clouds
134807.028,0.001233191229403019,-0.002970251254737377,-0.0008181333541870117,-0.0013808642979711294,-4.515131877269596e-05,-0.001891324413008988,0.048887815,57.043552,Clouds
134807.058,0.0022412827238440514,-0.0034259255044162273,-0.0013371109962463379,-0.00021023466251790524,0.0009977002628147602,-0.0005376171320676804,0.04537283,57.043552,Clouds
134807.087,0.0031043821945786476,-0.0014012637548148632,-0.0018865466117858887,-0.0019971677102148533,-0.0017772519495338202,-0.0006670114817097783,0.045047212,57.043552,Clouds
134807.117,0.0017908448353409767,-0.0015950975939631462,-0.0006964802742004395,0.0012956534046679735,0.001402679830789566,0.00047869712579995394,0.04271357,57.043552,Clouds
134807.148,0.001481804996728897,-0.002360009588301182,-0.0010780096054077148,0.001857877243310213,0.0008088890463113785,-0.0025059410836547613,0.042213056,57.043552,Clouds
134807.177,0.002032199874520302,-0.0017499160021543503,-0.0019024014472961426,-0.0019326237961649895,0.0018315654015168548,0.0005981075810268521,0.04118899,57.043552,Clouds
134807.207,0.002211720682680607,2.7731060981750488e-05,0.00043201446533203125,-0.0009662800002843142,0.0010734394891187549,0.0008862107060849667,0.0368247,57.043552,Clouds
134807.237,0.0010874345898628235,-0.0021505821496248245,-0.0013229846954345703,0.002138575306162238,0.0016630177851766348,0.0003348964382894337,0.061620597,57.043552,Clouds
134807.267,0.0017079729586839676,-0.0016704914160072803,-0.0019180774688720703,-0.001509927329607308,0.0013565330300480127,-0.0002271201810799539,0.059582908,57.043552,Clouds
134807.297,0.0014020754024386406,-0.0013685645535588264,-0.0025595426559448242,0.00230060750618577,0.0022922728676348925,0.0020611374638974667,0.05596745,57.043552,Clouds
134807.326,0.002083788625895977,-0.0020520612597465515,-0.0004540681838989258,0.0026489784941077232,0.0008239644812420011,-0.0001331625389866531,0.05092399,57.043552,Clouds
134807.356,0.0015562139451503754,-0.001846234779804945,-0.0010187029838562012,-0.0017856057966127992,-0.0006860952125862241,0.0011950681218877435,0.04319144,57.043552,Clouds
134807.386,0.001963576301932335,-0.0018862462602555752,-0.0018274784088134766,0.0012181471101939678,-0.000140973788802512,-0.00015934481052681804,0.043028425,57.043552,Clouds
134807.416,0.0022972114384174347,-0.0009312983602285385,-0.001217484474182129,-0.001334851374849677,0.0012176522286608815,-0.0011384718818590045,0.040014725,57.043552,Clouds
134807.446,0.0020418288186192513,-0.0014593172818422318,-0.0011872649192810059,0.001168903661891818,9.795199730433524e-06,-0.000559076142963022,0.036705196,57.043552,Clouds
134807.476,0.0004022512584924698,-0.001608927734196186,-0.00014972686767578125,0.004138031043112278,-1.1218289728276432e-05,-0.0028149550780653954,0.03665236,57.043552,Clouds
134807.505,0.002445090562105179,-0.0016648662276566029,-0.0018895864486694336,-0.0020946552976965904,0.0014909328892827034,0.0011569098569452763,0.034560807,57.043552,Clouds
134807.535,0.0018222332000732422,-0.0019240244291722775,-0.0020881295204162598,0.000189467566087842,0.00013297547411639243,0.000964323291555047,0.03232152,57.043552,Clouds
134807.565,0.001997353509068489,-0.0011940882541239262,-0.002561509609222412,0.00036452640779316425,0.002347472822293639,0.0006186157697811723,0.030112555,57.043552,Clouds
134807.595,0.0016541527584195137,-0.0014335992746055126,-0.0016156435012817383,0.0009231639560312033,-0.0019124631071463227,-6.141705671325326e-05,0.027106132,57.043552,Clouds
134807.624,0.001901787705719471,-0.0016517937183380127,-0.0017528533935546875,0.00033300393261015415,0.0006491333479061723,0.0005876760114915669,0.025217002,57.043552,Clouds
134807.654,0.0015892516821622849,0.0003802129067480564,-0.0011119246482849121,0.001853856025263667,0.0006899114232510328,-0.0007096950430423021,0.03617985,57.043552,Clouds
134807.684,0.0008187191560864449,-0.00046120863407850266,-0.0004712343215942383,-0.0014543456491082907,0.0033444396685808897,-0.0001949765719473362,0.033756692,57.043552,Clouds
134807.714,0.0006393082439899445,-0.001993501093238592,-0.002867400646209717,0.00038119335658848286,0.0011541740968823433,0.0007128536817617714,0.03244874,57.043552,Clouds
134807.744,0.0024582529440522194,0.0009555821307003498,-0.0010367631912231445,0.0015805731527507305,0.0014666252536699176,0.0015503796748816967,0.030157147,57.043552,Clouds
134807.774,0.0013880301266908646,-0.0027085309848189354,-0.0013425946235656738,0.00026846746914088726,0.00024344945268239826,-0.0005950576742179692,0.029345866,57.043552,Clouds
134807.804,0.0005436167120933533,-0.0021370858885347843,-0.0009306669235229492,0.0016697007231414318,0.0005572893423959613,-0.00045341846998780966,0.027009284,57.043552,Clouds
134807.833,0.0021093077957630157,6.260816007852554e-06,-0.0009919404983520508,-0.0008045104332268238,-0.0015978720039129257,0.000610527116805315,0.026340442,57.043552,Clouds
134807.863,0.0026684897020459175,-0.0010647443123161793,-0.001999080181121826,0.0017444125842303038,0.0012851257342845201,0.0005226015346124768,0.026942287,57.043552,Clouds
134807.893,0.0008290912955999374,-0.0019781803712248802,-0.0012209415435791016,-0.001241686288267374,-0.0005228524096310139,-0.0005707692471332848,0.023984503,57.043552,Clouds
134807.923,0.0012704329565167427,-0.0019416222348809242,-0.001083672046661377,0.0024494577664881945,0.0023542633280158043,-0.0015992708504199982,0.044310052,57.043552,Clouds
134807.953,0.003156936727464199,-0.0005045696161687374,-0.0007330775260925293,0.0025746894534677267,-0.00041041235090233386,0.0014781688805669546,0.06304511,57.043552,Clouds
134807.983,0.0015157312154769897,-0.0016004177741706371,-0.0009925365447998047,0.00029453146271407604,-0.0011505959555506706,0.0012156753800809383,0.058516737,57.043552,Clouds
134808.012,0.0011088429018855095,-0.001162517350167036,-0.0007177591323852539,0.0013818631414324045,-0.004818729590624571,0.0012368595926091075,0.054344736,57.043552,Clouds
134808.042,0.0014263736084103584,-0.0009584836661815643,-0.0006414651870727539,-0.00025008106604218483,-0.0001613190834177658,0.0012487884378060699,0.049156547,57.043552,Clouds
134808.072,0.002880411222577095,-0.0008367658592760563,-0.0014350414276123047,-0.0017192254308611155,-0.0019548980053514242,0.0007850826950743794,0.04543563,57.043552,Clouds
134808.102,0.0013988874852657318,-0.0013711326755583286,-0.002228677272796631,0.0007948880083858967,0.0004144349950365722,0.0010646848240867257,0.06757884,57.043552,Clouds
134808.131,0.0011005988344550133,-0.0016472246497869492,-0.0016797184944152832,-0.00018246681429445744,-0.0005079373950138688,0.00010120449587702751,0.07121975,57.043552,Clouds
134808.162,0.0023209098726511,-0.0017297230660915375,-0.0010083913803100586,0.0018151781987398863,-8.078572864178568e-05,0.00074517767643556,0.06442445,57.043552,Clouds
134808.191,0.0018706601113080978,-0.0007857638411223888,5.936622619628906e-05,-0.0014619117137044668,-0.000493415747769177,0.00018595426809042692,0.054573793,57.043552,Clouds
134808.221,0.0010224590077996254,-0.0013740588910877705,-0.0009785294532775879,0.0018644947558641434,0.0011144744930788875,-0.0007352697430178523,0.050355054,57.043552,Clouds
134808.251,0.0019665760919451714,-0.0008807769045233727,-0.0012685656547546387,0.002204193966463208,-0.00030208140378817916,0.0003564015787560493,0.059385244,57.043552,Clouds
134808.281,0.0021548233926296234,-0.0016541038639843464,-0.001574099063873291,-0.0016424122732132673,0.00027406541630625725,0.0006266331765800714,0.055747617,57.043552,Clouds
134808.311,0.0014201784506440163,-0.001583687961101532,-0.001848757266998291,-0.0003554311115294695,-0.0011947876773774624,-0.0018084683688357472,0.05288191,57.043552,Clouds
134808.341,0.0011733267456293106,-0.0011455765925347805,-0.001802682876586914,0.0018225277308374643,0.003047303296625614,7.22847762517631e-05,0.045077417,57.043552,Clouds
134808.370,0.001747719943523407,-0.0011362852528691292,-0.0013909339904785156,-0.0038089300505816936,-0.0013403667835518718,-0.000459258328191936,0.042416655,57.043552,Clouds
134808.400,0.0016216430813074112,-0.0013098041526973248,-0.0020928382873535156,0.0009401305578649044,-0.0017430426087230444,-0.0001564060221426189,0.038504686,57.043552,Clouds
134808.430,0.001030472107231617,-0.0012765973806381226,-0.0011623501777648926,-0.00035057892091572285,0.00015488109784200788,-0.0008025620481930673,0.06636449,57.043552,Clouds
134808.460,0.0019830428063869476,-0.0014359019696712494,-0.001208186149597168,-0.003272159956395626,-0.00012124364729970694,-0.0021272278390824795,0.061233282,57.043552,Clouds
134808.495,0.0010164221748709679,-0.0002627205103635788,-0.0021389126777648926,-0.001124650938436389,0.0002442043914925307,-0.0018152259290218353,0.051717762,57.043552,Clouds
134808.519,0.0023195305839180946,-0.0012370739132165909,-0.000841975212097168,0.0009509606752544641,0.00011926487786695361,0.001318303751759231,0.04693302,57.043552,Clouds
134808.549,0.0019968226552009583,-0.0010991208255290985,-0.001101374626159668,-0.0011395656038075686,-0.001844413811340928,-0.0014096598606556654,0.040347043,57.043552,Clouds
134808.579,0.0013746516779065132,-0.0012407205067574978,-0.0013456940650939941,8.736737072467804e-05,0.001693246653303504,0.0012308815494179726,0.038079027,57.043552,Clouds
134808.609,0.0016296617686748505,-0.000945615116506815,-0.0011778473854064941,0.00011106650345027447,-4.7637964598834515e-05,0.0006064214394427836,0.035638787,57.043552,Clouds
134808.639,0.0017428761348128319,-0.0008792360313236713,-0.0021086931228637695,0.0020240838639438152,-7.19151139492169e-05,-0.0007637763628736138,0.03170534,57.043552,Clouds
134808.669,0.0014074509963393211,-0.0013338797725737095,-0.00044548511505126953,-0.0008245033677667379,0.0012188347754999995,0.00041898206109181046,0.03507248,57.043552,Clouds
134808.699,0.0011038873344659805,-0.0015195012092590332,-0.0019255280494689941,-0.0015234012389555573,-0.0007244697771966457,-0.0018525478662922978,0.039313164,57.043552,Clouds
134808.729,0.0019113989546895027,-0.0007291054353117943,-0.001452028751373291,-2.3052794858813286e-05,-0.002259789500385523,0.0007860453333705664,0.037949536,57.043552,Clouds
134808.758,0.0017724353820085526,-0.0012988471426069736,-0.0016048550605773926,0.0028618695214390755,0.0012661661021411419,-0.00041087844874709845,0.043040805,57.043552,Clouds
134808.788,0.0006120922043919563,-0.0017306706868112087,-0.0006895661354064941,0.0007200110703706741,0.0006540855392813683,-0.0005159336724318564,0.038467437,57.043552,Clouds
134808.818,0.0016529839485883713,-0.001503476407378912,-0.0009642243385314941,-0.00020699622109532356,0.0016614942578598857,0.0009881992591544986,0.03734371,57.043552,Clouds
134808.848,0.0012185564264655113,-0.0010677287355065346,-0.0010254979133605957,0.0022385765332728624,0.0010036760941147804,0.0020629088394343853,0.033568032,57.043552,Clouds
134808.878,0.0010081576183438301,-0.001148325391113758,-0.0008121132850646973,-2.5741057470440865e-05,0.0019124773098155856,0.000289608899038285,0.031984095,57.043552,Clouds
134808.908,0.0014821002259850502,-0.0008912445046007633,-0.0013004541397094727,0.0011332256253808737,-0.0014911587350070477,0.0006427265470847487,0.031040993,57.043552,Clouds
134808.937,0.0015789754688739777,-0.0007163076661527157,-0.001269996166229248,0.004539232701063156,0.00033680920023471117,0.0009266454726457596,0.03196177,57.043552,Clouds
134808.967,0.0015814388170838356,-0.0016929409466683865,-0.0016970038414001465,-0.002450824249535799,0.0005526937893591821,-0.00020745419897139072,0.049816944,57.043552,Clouds
134808.997,0.0006430018693208694,-0.0014017010107636452,-0.0006597638130187988,0.0002840859815478325,0.0021642541978508234,0.00029498356161639094,0.057582658,57.043552,Clouds
134809.027,0.0016217324882745743,-0.0008913353085517883,-0.0007359981536865234,0.0012617153115570545,0.0013098354684188962,0.000525818788446486,0.056693107,57.043552,Clouds
134809.057,0.0008462453261017799,-0.0004968028515577316,-0.0017124414443969727,-0.0004980796948075294,-0.0021574157290160656,0.0021994151175022125,0.0540484,57.043552,Clouds
134809.086,0.0008109137415885925,-0.00028717564418911934,-0.0013312101364135742,0.00015152711421251297,0.0016986486734822392,0.0005722003406845033,0.063998215,57.043552,Clouds
134809.115,0.0013889232650399208,-0.0007873927243053913,-0.0015603899955749512,0.0013206806033849716,0.0003279050288256258,-0.0010499806376174092,0.059119195,57.043552,Clouds
134809.146,0.0017429850995540619,-0.0005635642446577549,-0.0012707114219665527,0.0011448434088379145,-0.00037733023054897785,-0.0005413640756160021,0.0514585,57.043552,Clouds
134809.176,0.0012776469811797142,-0.0007622218690812588,-0.0014998316764831543,-0.0005189427174627781,0.0043686144053936005,0.0007271264330483973,0.048212864,57.043552,Clouds
134809.206,0.0009100893512368202,-0.0011479109525680542,-0.000966191291809082,-5.090050399303436e-05,-0.0011711760889738798,-0.0017154715023934841,0.04413391,57.043552,Clouds
134809.235,0.001477956771850586,-0.0007700431160628796,-0.0015614628791809082,0.0010961673688143492,0.0006724698469042778,0.00045421780669130385,0.04440802,57.043552,Clouds
134809.265,0.0017700707539916039,-0.0006576115265488625,-0.0006917715072631836,-0.0009079629089683294,0.0006170700071379542,0.0010660579428076744,0.043739367,57.043552,Clouds
134809.295,0.0014204895123839378,-0.0002792445011436939,-0.0019432306289672852,0.003165636444464326,0.002436928916722536,0.0019773337990045547,0.041482605,57.043552,Clouds
134809.325,0.0012237690389156342,-0.0010107075795531273,-0.0022489428520202637,-0.0012622601352632046,-0.00012759339006152004,-0.000556423794478178,0.047438912,57.043552,Clouds
134809.355,0.0017013633623719215,-0.0014178412966430187,-0.0013027787208557129,0.000475411769002676,0.0006833240040577948,0.0006165315280668437,0.04341844,57.043552,Clouds
134809.384,0.0020174849778413773,-0.0008709942921996117,-0.0011347532272338867,-0.002446587663143873,-0.0014548426261171699,0.00026558974059298635,0.036504924,57.043552,Clouds
134809.414,0.0008102543652057648,-0.0004816441796720028,-0.0018213391304016113,0.0001746721100062132,-3.865364124067128e-05,0.0011089695617556572,0.03521401,57.043552,Clouds
134809.444,0.000663422979414463,-0.000977715477347374,-0.0018827319145202637,0.0010628188028931618,0.00016432913253083825,0.0020463468972593546,0.031247247,57.043552,Clouds
134809.474,0.0009583942592144012,-0.0013225870206952095,-0.0006468296051025391,-0.002470702864229679,0.0025049850810319185,0.0004336561542004347,0.04043392,57.043552,Clouds
134809.504,0.0017213625833392143,-0.0006454610265791416,-0.001226961612701416,0.0009621621575206518,-0.0015759598463773727,-7.618474774062634e-05,0.037531044,57.043552,Clouds
134809.534,0.0015405099838972092,-0.000764510128647089,-0.00195920467376709,-0.0020965225994586945,-0.0013704306911677122,0.0005677493172697723,0.034612432,57.043552,Clouds
134809.563,0.001330760307610035,-0.0018532834947109222,-0.0008909702301025391,-0.0016408136580139399,-0.0005924339056946337,4.95249405503273e-05,0.032860402,57.043552,Clouds
134809.593,0.0018180403858423233,-0.0010173115879297256,-0.0016995072364807129,-3.115576691925526e-05,0.0016202088445425034,-0.001527637941762805,0.03160287,57.043552,Clouds
134809.623,0.001283140853047371,-0.0012501860037446022,5.4955482482910156e-05,0.0014350467827171087,-9.081189637072384e-05,-0.0006282603135332465,0.028822131,57.043552,Clouds
134809.653,0.0015879329293966293,-0.00045454036444425583,-0.000830531120300293,-0.0017290259711444378,-4.13358211517334e-05,-0.0008508375030942261,0.028576162,57.043552,Clouds
134809.683,0.0010394221171736717,-0.0005772826261818409,-0.0015784502029418945,-0.000798393040895462,-0.001175420475192368,-0.000653807888738811,0.044874176,57.043552,Clouds
134809.713,0.0018752207979559898,-0.0010400894097983837,-0.0011358857154846191,-0.00033370498567819595,-6.641577056143433e-05,2.0910403691232204e-05,0.04235175,57.043552,Clouds
134809.743,0.0013905074447393417,-0.001159430481493473,-0.00183790922164917,0.001537201926112175,0.00012821302516385913,-0.000725181249435991,0.04073597,57.043552,Clouds
134809.772,0.00019788090139627457,-0.0008812439627945423,-0.0010445117950439453,-0.0005636585410684347,-0.0006709161098115146,0.0021846704185009003,0.03636073,57.043552,Clouds
134809.802,0.001143001951277256,-0.0004530404694378376,-0.0015024542808532715,-0.002500878181308508,-0.001817113603465259,-0.0029466203413903713,0.03511176,57.043552,Clouds
134809.832,0.001142960973083973,-0.0005172477103769779,-0.0005103945732116699,0.00020888308063149452,-0.0028486750088632107,0.0006774450885131955,0.032253955,57.043552,Clouds
134809.862,0.0012470893561840057,-0.0010604821145534515,-0.0016701817512512207,-0.0008239457383751869,-0.0012961160391569138,-0.0002477944362908602,0.030261412,57.043552,Clouds
134809.892,0.0013774679973721504,-0.0004187743179500103,-0.0012429356575012207,0.00026796944439411163,-0.0007933755987323821,-0.0014096415834501386,0.028866762,57.043552,Clouds
134809.921,0.0014829467982053757,-0.0011916286312043667,-0.002051711082458496,6.264355033636093e-05,-0.0006071104435250163,0.0007598742377012968,0.029003713,57.043552,Clouds
134809.952,0.0004410231485962868,-0.0014756591990590096,-0.001304030418395996,-3.602704964578152e-05,-0.0007350934902206063,0.0001492550945840776,0.02810883,57.043552,Clouds
134809.981,0.0008291257545351982,-0.0010222471319139004,-0.0013496875762939453,-0.0003298260271549225,0.0001776557182893157,0.0021562124602496624,0.027130764,57.043552,Clouds
134810.011,0.001674482598900795,-0.0011425246484577656,-0.001395881175994873,0.003055957145988941,0.000670453067868948,-0.001743237255141139,0.02710323,57.043552,Clouds
134810.041,0.001081446185708046,-0.0009351065382361412,-0.0008620023727416992,0.0012320042587816715,0.002025565365329385,-0.0002583698369562626,0.025745794,57.043552,Clouds
134810.071,0.000581325963139534,-0.00046484265476465225,-0.0008620619773864746,-0.0014908318407833576,-0.00023654435062780976,-0.0014201863668859005,0.023432285,57.043552,Clouds
134810.100,0.0011458639055490494,-0.00041482411324977875,-0.0003890395164489746,6.525544449687004e-06,-0.0004659917904064059,0.0004480255302041769,0.02230829,57.043552,Clouds
134810.130,0.0021265214309096336,-0.0008512097410857677,-0.00098419189453125,-0.0009372066706418991,0.00024186681548599154,4.707102198153734e-05,0.022306832,57.043552,Clouds
134810.160,0.001449529081583023,-0.0015484229661524296,-0.0016104578971862793,-0.0020103384740650654,0.00021524002659134567,-0.0017100988188758492,0.02175912,57.043552,Clouds
134810.190,-0.0005042543634772301,-0.0006268462166190147,-0.0006948113441467285,-0.000614263117313385,-0.0002096498355967924,0.000920292513910681,0.02086877,57.043552,Clouds
134810.220,0.0018138466402888298,-0.0005432656034827232,-0.001152634620666504,0.000187278026714921,0.00110996316652745,0.002051487099379301,0.01916852,57.043552,Clouds
134810.250,0.0024273889139294624,-0.00031870976090431213,-0.001259446144104004,0.0006152440328150988,0.00042600021697580814,-0.0018504501786082983,0.019098915,57.043552,Clouds
134810.279,0.0012802118435502052,-0.0011447221040725708,-0.001655876636505127,-0.002354365773499012,0.0016128626884892583,-0.001861779484897852,0.020379102,57.043552,Clouds
134810.310,0.0009064571931958199,-0.00015044212341308594,-0.0010457038879394531,1.938524655997753e-05,0.0004583635600283742,0.0004992799367755651,0.03166634,57.043552,Clouds
134810.339,0.0016785478219389915,-0.000769252423197031,-0.0002523064613342285,-0.0008036543149501085,0.001181165687739849,0.0017010846640914679,0.030227931,57.043552,Clouds
134810.369,0.0015076762065291405,-0.00041416846215724945,-0.001443028450012207,-0.0012609325349330902,0.0006773319910280406,-0.0006510969833470881,0.027195444,57.043552,Clouds
134810.399,0.001331551931798458,-0.0008533792570233345,-0.0013207197189331055,0.005705597810447216,0.0002156407863367349,3.2849726267158985e-05,0.02793755,57.043552,Clouds
134810.429,0.0015892935916781425,-0.000554471742361784,-0.0012597441673278809,0.00014337943866848946,7.341551827266812e-05,0.001805104548111558,0.024696754,57.043552,Clouds
134810.459,0.001263539306819439,-0.0006946716457605362,-0.0009700655937194824,0.0012989728711545467,-0.0005817858036607504,0.002977127907797694,0.024391895,57.043552,Clouds
134810.494,0.001157345250248909,-0.001512349583208561,-0.0019156932830810547,-0.0011382810771465302,-0.001476295292377472,-0.0017573288641870022,0.022307916,57.043552,Clouds
134810.518,0.00037423521280288696,-0.0005701500922441483,-0.0011070966720581055,-0.00025004358030855656,0.0009903875179588795,-0.0007932917797006667,0.021245813,57.043552,Clouds
134810.548,0.0012602834030985832,-0.0008174614049494267,-0.0008478164672851562,-0.0006521700415760279,-0.0014151971554383636,0.002360413782298565,0.020437753,57.043552,Clouds
134810.578,0.0014064647257328033,-0.0011515975929796696,-0.00045114755630493164,-0.00197707861661911,0.000204833981115371,-0.002412092871963978,0.02042925,57.043552,Clouds
134810.608,0.001315053552389145,-0.0005982271395623684,-0.0002676844596862793,0.0007104307878762484,1.9005994545295835e-05,-0.0021979091688990593,0.018839303,57.043552,Clouds
134810.638,0.0012487126514315605,-0.0002632914111018181,-0.0013661384582519531,-7.967953570187092e-05,-0.0007068741251714528,-0.0006089772214181721,0.023094736,57.043552,Clouds
134810.667,0.0011524511501193047,-0.001108014490455389,-0.0012136101722717285,0.002296733669936657,-0.0001984489063033834,0.000782135350164026,0.047836196,57.043552,Clouds
134810.697,0.0014160145074129105,-0.0003054398111999035,-0.0015950798988342285,-0.0032766489312052727,0.0011647695209831,-0.0007467129034921527,0.04520961,57.043552,Clouds
134810.727,0.0011705895885825157,-0.0009761354885995388,-0.0008626580238342285,-0.000343522522598505,-0.00016269674233626574,0.00047372368862852454,0.038798887,57.043552,Clouds
134810.757,0.0014086905866861343,-0.0004019630141556263,-0.0016104578971862793,0.00172095512971282,-0.0015268613351508975,-0.002627307316288352,0.036151193,57.043552,Clouds
134810.787,0.0018149558454751968,-0.0008716098964214325,-0.0013205409049987793,0.0023742597550153732,0.00030928035266697407,-0.00020210555521771312,0.03414707,57.043552,Clouds
134810.817,0.0009856568649411201,-0.0004762583412230015,-0.00124436616897583,-0.00026768213137984276,-0.0025144764222204685,-0.0010907037649303675,0.033487745,57.043552,Clouds
134810.846,0.0009526722133159637,-0.00039877044036984444,-0.00203782320022583,-0.0018968377262353897,0.0016732757212594151,-0.0032367082312703133,0.030803217,57.043552,Clouds
134810.876,0.0014511393383145332,-0.0009458111599087715,-0.0012446045875549316,0.0034290035255253315,-0.00026047774008475244,0.002579684369266033,0.026228145,57.043552,Clouds
134810.906,0.0016885269433259964,-0.00044379662722349167,-0.0015498995780944824,0.0016845993231981993,0.0006011968944221735,0.00043836625991389155,0.025087401,57.043552,Clouds
134810.936,0.0013045333325862885,-0.001270701177418232,-0.001687169075012207,0.00025053974241018295,-0.001663479022681713,-0.0002811431768350303,0.023991043,57.043552,Clouds
134810.966,0.0006669787690043449,-0.00033554574474692345,-0.0013213753700256348,-0.0014269528910517693,0.0022837137803435326,0.00219651497900486,0.023248337,57.043552,Clouds
134810.996,0.0016178973019123077,0.0001636706292629242,-0.0016113519668579102,-0.001141733955591917,0.0008269078680314124,6.344571011140943e-05,0.028957933,57.043552,Clouds
134811.025,0.0009734826162457466,-0.0008670664392411709,-0.0014588236808776855,0.0013238261453807354,-0.0009953634580597281,0.00015008222544565797,0.026194006,57.043552,Clouds
134811.055,0.0012177759781479836,-0.0005313362926244736,-0.001184225082397461,-0.0006152342539280653,-0.0006539184832945466,3.105890937149525e-05,0.024559746,57.043552,Clouds
134811.084,-4.434119910001755e-05,-0.0008856127969920635,-0.0008028745651245117,-0.0001408278476446867,-0.0032543509732931852,0.0002043659333139658,0.23522428,57.043552,Clouds
134811.115,0.0017239181324839592,-0.00011487537994980812,-0.0016115307807922363,-0.001115746097639203,-0.00036692406865768135,-0.0011070093605667353,0.21758226,57.043552,Clouds
134811.145,0.0019015949219465256,-0.00022303033620119095,-0.0002841949462890625,0.0034903879277408123,0.0006041420274414122,-0.0018767928704619408,0.19853865,57.043552,Clouds
134811.174,0.0009503839537501335,-0.0009968220256268978,-0.0016880035400390625,-0.0017851070733740926,-0.0034888030495494604,-0.0008454559138044715,0.16175978,57.043552,Clouds
134811.204,0.0012157438322901726,-0.0001265653409063816,-0.0006809234619140625,0.00011757202446460724,-1.7228710930794477e-05,0.0019706895109266043,0.14619294,57.043552,Clouds
134811.234,0.0005237553268671036,-0.00039343303069472313,-0.0020389556884765625,0.0017309652175754309,0.0004225721349939704,7.843016646802425e-06,0.13209052,57.043552,Clouds
134811.264,0.000699751079082489,-0.0009643225930631161,-0.0012610554695129395,0.0004406403750181198,-0.0013866103254258633,-0.0008556445245631039,0.14558834,57.043552,Clouds
134811.294,0.0009570866823196411,-0.0014171414077281952,-0.0008643865585327148,-0.001133027020841837,-0.00015765114221721888,0.00011581007856875658,0.19377092,57.043552,Clouds
134811.324,0.0016213925555348396,-7.60774128139019e-05,-0.0013834238052368164,-0.0025554895401000977,-0.0030424916185438633,-0.0015595938311889768,0.1832623,57.043552,Clouds
134811.353,0.0018015829846262932,-0.000893925316631794,-0.002146124839782715,0.0014924879651516676,-0.001648103236220777,-0.003194088116288185,0.17662564,57.043552,Clouds
134811.383,0.000565030612051487,-0.00025503383949398994,-0.001383364200592041,-0.000422830693423748,-0.0009904195321723819,-0.0017673566471785307,0.17408094,57.043552,Clouds
134811.413,0.0014937371015548706,-0.00031492626294493675,-0.00014716386795043945,-0.002516245935112238,-0.0014904082054272294,-0.002659644465893507,0.17563918,57.043552,Clouds
134811.443,0.0011200448498129845,-0.0006472491659224033,-0.0025885701179504395,0.0010915098246186972,0.0023557457607239485,0.0009438013657927513,0.15896733,57.043552,Clouds
134811.473,0.0008918996900320053,-0.00030204281210899353,-0.0013982057571411133,0.0005057293456047773,0.0004661934799514711,-0.0007959191570989788,0.14791943,57.043552,Clouds
134811.502,0.0010521002113819122,-0.0012435698881745338,-0.0014135241508483887,0.0017966111190617085,-0.002132971538230777,-0.002224989701062441,0.14141808,57.043552,Clouds
134811.532,0.0014780238270759583,-8.728308603167534e-05,-0.0014742612838745117,0.0006530587561428547,-0.0017377067124471068,-0.0013378191506490111,0.13810451,57.043552,Clouds
134811.562,0.00041393376886844635,-0.0006797588430345058,-0.0013518929481506348,0.002145788399502635,-0.0016267511527985334,0.0010257175890728831,0.13117698,57.043552,Clouds
134811.592,0.0010227914899587631,-0.0010813158005475998,-0.0016416311264038086,-0.0020625656470656395,-0.0015318462392315269,-0.0016648535383865237,0.12537716,57.043552,Clouds
134811.622,0.0022562677040696144,-0.0006561311893165112,-0.0015957355499267578,-0.002883444307371974,-0.0004440274788066745,-0.0016693341312929988,0.10477035,57.043552,Clouds
134811.652,0.0008491659536957741,-0.000893165823072195,-0.0026483535766601562,-0.0006921186577528715,-0.0013904202496632934,-0.000600430415943265,0.09722177,57.043552,Clouds
134811.682,0.0002779439091682434,-0.0010302718728780746,-0.0013968944549560547,0.002252373844385147,-0.0010023224167525768,-0.00030770606826990843,0.08768934,57.043552,Clouds
134811.711,0.0007961886003613472,-0.0005049919709563255,-0.0016559362411499023,0.0011472010519355536,-0.00042368797585368156,-0.0006085789063945413,0.07314233,57.043552,Clouds
134811.741,0.0023650452494621277,2.779019996523857e-05,-0.001213371753692627,-0.0012163824867457151,-0.0013846845831722021,0.0018553046975284815,0.065780416,57.043552,Clouds
134811.771,0.0013401824980974197,-0.00016148434951901436,-0.001991450786590576,-0.001221996732056141,0.0003780040715355426,0.0006062604952603579,0.07654488,57.043552,Clouds
134811.801,-0.00027913134545087814,-0.0001693335361778736,-0.0008927583694458008,-0.0005642068572342396,0.0003000220749527216,0.00036272118450142443,0.08098218,57.043552,Clouds
134811.831,0.0013627000153064728,-0.000924412626773119,-0.0004805326461791992,-0.0002371708396822214,-0.0004948388668708503,0.002959801349788904,0.0768109,57.043552,Clouds
134811.860,0.0031795864924788475,2.5904737412929535e-05,-0.0013809800148010254,-0.0009466279298067093,0.0007297362899407744,-0.0017493520863354206,0.07326274,57.043552,Clouds
134811.890,9.139999747276306e-06,-0.0004975991323590279,-0.0011982321739196777,0.002203247742727399,0.0013052028371021152,-0.002529556630179286,0.115876704,57.043552,Clouds
134811.921,-2.8206966817378998e-05,-0.001093591097742319,-0.0013964176177978516,0.0019074794836342335,-0.002278525149449706,0.0005120008136145771,0.10150454,57.043552,Clouds
134811.950,0.0023370999842882156,-7.646437734365463e-05,-0.0013353824615478516,0.00045951385982334614,0.000752242689486593,0.00034894541022367775,0.09893202,57.043552,Clouds
134811.980,0.00251947995275259,2.320343628525734e-05,-0.0022510290145874023,0.0003602895885705948,-0.0005307241808623075,0.002137549687176943,0.09139902,57.043552,Clouds
134812.010,-0.0005650687962770462,-0.0010093278251588345,-0.0010909438133239746,-0.0009083885233849287,0.0006248579593375325,0.0003300786775071174,0.07523002,57.043552,Clouds
134812.039,0.0006757806986570358,-0.00046127336099743843,-0.00041931867599487305,0.0004184129647910595,4.869289114139974e-06,0.0033575352281332016,0.06931515,57.043552,Clouds
134812.069,0.0027748197317123413,-0.00012003257870674133,-0.0014110207557678223,-0.0007419346366077662,0.00018624748918227851,-0.00016306410543620586,0.16916126,57.043552,Clouds
134812.099,0.0010658856481313705,-0.0005564652383327484,-0.0006175041198730469,0.002623927779495716,-0.0010492256842553616,0.00160544877871871,0.16124633,57.043552,Clouds
134812.129,-0.0003185570240020752,-0.0001781769096851349,-0.00035822391510009766,9.684334509074688e-05,0.0003735573263838887,-0.0014094471698626876,0.1489684,57.043552,Clouds
134812.159,0.0016548139974474907,-0.0003047604113817215,-0.0013807415962219238,0.001599048264324665,-0.0006983213825151324,0.0011403169482946396,0.13063833,57.043552,Clouds
134812.189,0.0033792471513152122,0.00010684924200177193,-0.002113640308380127,0.0019746380858123302,0.0012821489945054054,-0.0010167383588850498,0.118591994,57.043552,Clouds
134812.218,3.577210009098053e-05,-0.0009009679779410362,9.882450103759766e-05,-0.0012984077911823988,-0.0005943572032265365,-6.328779272735119e-05,0.10183959,57.043552,Clouds
134812.248,0.0008765487000346184,-0.00039624515920877457,-0.0018541812896728516,-0.001143194967880845,-0.00044166663428768516,-0.002560307504609227,0.094181046,57.043552,Clouds
134812.278,0.003131769597530365,-0.00045395782217383385,-0.0024644136428833008,-0.0037934312131255865,0.0005649611121043563,0.0010707264300435781,0.08687355,57.043552,Clouds
134812.308,0.001715836115181446,0.00012310966849327087,-0.0015947818756103516,-0.0030618743039667606,0.002438165945932269,-0.00014145747991278768,0.079308,57.043552,Clouds
134812.338,-0.001156340353190899,-0.0006249891594052315,-0.0016557574272155762,0.0007791435346007347,-0.0015149348182603717,8.64608446136117e-05,0.07503595,57.043552,Clouds
134812.367,0.0011632516980171204,7.344083860516548e-05,-0.0012590289115905762,-0.0009327665902674198,-0.0004017000028397888,-0.0006260945228859782,0.065494545,57.043552,Clouds
134812.397,0.0029324255883693695,-0.0007201191037893295,-0.0007557868957519531,0.0016843515913933516,-0.00021873071091249585,-0.0002508623874746263,0.06482425,57.043552,Clouds
134812.427,0.0009764805436134338,-0.0013199481181800365,-0.0007709860801696777,0.0015042242594063282,0.000598203158006072,0.001047558500431478,0.07156013,57.043552,Clouds
134812.457,-0.00033243466168642044,-0.00024984730407595634,-0.0008779764175415039,0.0002867276780307293,0.0006906568305566907,0.00030594150302931666,0.06372394,57.043552,Clouds
134812.487,0.0008789049461483955,-0.0007953266613185406,-0.0016715526580810547,0.001391038065776229,0.0013786586932837963,0.0021349540911614895,0.06037413,57.043552,Clouds
134812.517,0.00046417489647865295,-0.00017406046390533447,-0.00125962495803833,0.00043186917901039124,-0.0007396636065095663,-0.0002265478833578527,0.056094475,57.043552,Clouds
134812.546,0.0007076067849993706,-0.0005120453424751759,-8.469820022583008e-05,0.0003941887989640236,0.0008792667067609727,5.43691567145288e-05,0.054801032,57.043552,Clouds
134812.576,0.0022312207147479057,-4.957430064678192e-05,-0.0018698573112487793,-0.0024781576357781887,0.00046909076627343893,-0.0017241367604583502,0.051872704,57.043552,Clouds
134812.606,0.0021096747368574142,-0.0002483455464243889,-0.0011830925941467285,-0.00016412418335676193,-0.0012051841476932168,0.0009514400735497475,0.047850918,57.043552,Clouds
134812.636,0.0009568417444825172,-0.0006701964884996414,-0.0008167028427124023,-0.0012384350411593914,0.0012984811328351498,0.001568162813782692,0.046673436,57.043552,Clouds
134812.666,0.0020054979249835014,0.0002449122257530689,-0.001579582691192627,0.0026703623589128256,-0.0018682575318962336,-0.0030491419602185488,0.05349553,57.043552,Clouds
134812.696,0.0016284426674246788,-0.0004907115362584591,-0.0011066794395446777,-0.0024810447357594967,0.0008535344968549907,-0.000575295474845916,0.0502161,57.043552,Clouds
134812.725,0.0006802938878536224,-0.00027933157980442047,-0.0011067390441894531,-0.0018944134935736656,-0.00019275350496172905,0.0017162116710096598,0.04717294,57.043552,Clouds
134812.755,0.001311328262090683,-0.00018831202760338783,-0.0016409754753112793,-0.0023071342147886753,0.001545595470815897,0.0009602358913980424,0.057565745,57.043552,Clouds
134812.785,0.0012795915827155113,0.0001005963422358036,-0.00109177827835083,0.0022471908014267683,-9.662739466875792e-05,-0.0018840800039470196,0.053355277,57.043552,Clouds
134812.815,0.00010811816900968552,-0.0005491934716701508,-0.0017328262329101562,0.0018409118056297302,0.002350885421037674,-0.0033593224361538887,0.04754175,57.043552,Clouds
134812.845,0.001050727441906929,-0.000981670804321766,-0.00182420015335083,-0.0013641959521919489,0.0034826346673071384,0.00020597194088622928,0.06833053,57.043552,Clouds
134812.875,0.002357364632189274,-0.0008151219226419926,-0.0011071562767028809,-0.003039109520614147,0.0012976279249414802,0.0012175110168755054,0.09763929,57.043552,Clouds
134812.905,0.00040754303336143494,-0.0008637751452624798,-0.001397550106048584,0.0009815497323870659,0.0034636580385267735,0.0015189896803349257,0.1033148,57.043552,Clouds
134812.934,-0.0001221969723701477,0.0004040868952870369,-0.001123189926147461,0.0009000576101243496,0.0007991795428097248,-0.001813270733691752,0.093664475,57.043552,Clouds
134812.964,0.0028115417808294296,0.0008541024290025234,-0.0010473132133483887,0.0008387228008359671,0.00020580978889483958,-0.00244325352832675,0.082663074,57.043552,Clouds
134812.994,0.0011648843064904213,0.00029476871713995934,-0.0014286637306213379,0.0026680477894842625,-0.0029832622967660427,0.0007972455932758749,0.076762795,57.043552,Clouds
134813.024,-0.0002759750932455063,-0.0008410322479903698,-0.0010164380073547363,0.0018631087150424719,0.00027642460190691054,-0.0017319330945611,0.073519416,57.043552,Clouds
134813.054,0.0011329064145684242,-0.0007978891953825951,-0.0014896392822265625,0.002347653266042471,-0.002327303634956479,0.0016000773757696152,0.06130351,57.043552,Clouds
134813.083,0.002831520512700081,-0.0007784971967339516,-0.0006657242774963379,0.0020492365583777428,0.0014109279727563262,0.004199550952762365,0.055853944,57.043552,Clouds
134813.113,0.0002259034663438797,-0.0006886147893965244,-0.0020236968994140625,0.0025274506770074368,-0.0012056473642587662,-0.001470803515985608,0.051230792,57.043552,Clouds
134813.143,-0.0014580423012375832,-0.001151643693447113,-0.0009863972663879395,0.0002965778112411499,-0.0014964458532631397,0.000318419944960624,0.04664097,57.043552,Clouds
134813.173,0.0019210800528526306,-0.0006854073144495487,-0.0008186101913452148,0.0009724441915750504,-0.0014513048809021711,-0.0014667429495602846,0.07920408,57.043552,Clouds
134813.203,0.002792385406792164,-0.00016590533778071404,-0.0011850595474243164,0.0003296826034784317,-0.0019515813328325748,0.0004373391857370734,0.069519185,57.043552,Clouds
134813.233,0.0004596579819917679,-0.0005552293732762337,-0.0018564462661743164,0.0010726568289101124,0.0006185056990943849,-0.001025013392791152,0.06425931,57.043552,Clouds
134813.262,-0.000563131645321846,-0.0009162831120193005,-0.0010478496551513672,0.0004610554315149784,-0.0003364195581525564,-0.0007873790455050766,0.05855575,57.043552,Clouds
134813.293,0.0017232419922947884,9.311176836490631e-05,-0.001826167106628418,-0.001315416069701314,0.0005540956626646221,0.00011079816613346338,0.04935508,57.043552,Clouds
134813.322,0.0012922389432787895,-0.0003107120282948017,-0.0005752444267272949,-0.0006422507576644421,-0.00017860082152765244,0.0010148155270144343,0.04475864,57.043552,Clouds
134813.352,3.2014213502407074e-05,-0.0010171802714467049,-0.001109302043914795,9.286426939070225e-05,-0.0011570750502869487,-0.0016113717574626207,0.03703771,57.043552,Clouds
134813.382,0.0007805041968822479,-0.0007947352714836597,-0.0015366077423095703,-0.0012526349164545536,0.002075574127957225,0.0020358720794320107,0.03505723,57.043552,Clouds
134813.412,0.0019777966663241386,-5.32492995262146e-05,-0.0004227161407470703,0.0008170802611857653,0.0010259108385071158,0.0011837894562631845,0.03422037,57.043552,Clouds
134813.441,0.0012672515586018562,-0.00016186712309718132,-0.001948714256286621,0.0009313137270510197,0.00020131084602326155,0.000800310808699578,0.039404258,57.043552,Clouds
134813.471,0.0008200556039810181,2.800486981868744e-05,-0.0011859536170959473,-0.001352937426418066,0.0005803849780932069,-0.0008503841236233711,0.0467458,57.043552,Clouds
134813.501,0.0015054559335112572,0.00018161768093705177,-0.0017049312591552734,-0.003602421609684825,-0.0011219531297683716,0.0009532802505418658,0.040832784,57.043552,Clouds
134813.531,0.0012057851999998093,-0.0003879494033753872,-0.001613318920135498,-0.0008359975181519985,0.0009281571255996823,-3.271602327004075e-05,0.038906388,57.043552,Clouds
134813.561,0.00019853468984365463,-0.0002418607473373413,-0.001201331615447998,0.0002947417087852955,-0.0010389958042651415,-0.001042673597112298,0.036243536,57.043552,Clouds
134813.591,0.0011300332844257355,-7.255328819155693e-05,-0.002681434154510498,-0.00016889465041458607,-0.001620015362277627,-0.000688861939124763,0.037170492,57.043552,Clouds
134813.620,0.0007880134508013725,-0.0005030273459851742,-0.000758826732635498,0.001044837525114417,0.0022849305532872677,-0.0007160429377108812,0.03398003,57.043552,Clouds
134813.650,0.0014511076733469963,-9.375251829624176e-05,-0.0010030269622802734,-0.0006515709683299065,0.00044398775207810104,0.002661727834492922,0.03432774,57.043552,Clouds
134813.680,0.0008852239698171616,0.0005985572934150696,-0.0021625757217407227,-0.002630834933370352,0.0004944175598211586,0.0015505943447351456,0.045514382,57.043552,Clouds
134813.710,0.001599874347448349,-4.718592390418053e-05,-0.0012626051902770996,0.0011635639239102602,0.00025992808514274657,0.0028201064560562372,0.044320147,57.043552,Clouds
134813.740,0.000742131844162941,-0.00025379424914717674,-0.0015376806259155273,0.001974328188225627,-0.00013585973647423089,2.776348264887929e-05,0.041230958,57.043552,Clouds
134813.769,0.0003338651731610298,-0.00032636336982250214,-0.0013849735260009766,0.0009024105966091156,0.0024464838206768036,-0.0006324593559838831,0.04393185,57.043552,Clouds
134813.799,0.0004317294806241989,-4.6566128730773926e-08,-0.001965045928955078,-0.0011307690292596817,0.001584212644957006,-0.000704787322320044,0.03832018,57.043552,Clouds
134813.829,0.0003544958308339119,8.438900113105774e-05,-0.002514362335205078,-0.0008518754038959742,0.0014379152562469244,-0.0005616527632810175,0.035053924,57.043552,Clouds
134813.859,0.001622839830815792,-0.00035063689574599266,-0.0012786388397216797,0.0008387865964323282,0.0019755240064114332,-0.0003412598161958158,0.033574842,57.043552,Clouds
134813.889,0.00017105787992477417,-0.0001089656725525856,-0.001049816608428955,0.00039477436803281307,0.002350886818021536,-1.4106451999396086e-05,0.029570624,57.043552,Clouds
134813.919,0.0010556597262620926,0.00023398781195282936,-0.002026677131652832,-0.0012953921686857939,0.0005288798711262643,-5.302869249135256e-05,0.027931923,57.043552,Clouds
134813.949,0.002019692212343216,0.00012410292401909828,-0.0012024641036987305,0.0012388555333018303,0.0013271308271214366,-0.0011623050086200237,0.023701003,57.043552,Clouds
134813.978,0.0004572169855237007,-0.0007664961740374565,-0.001522839069366455,-0.0005874182097613811,-0.0008125550230033696,-0.0016235746443271637,0.021908807,57.043552,Clouds
134814.008,0.0007369136437773705,-0.0006225584074854851,-0.0018739104270935059,0.0007898635230958462,0.0012383699649944901,-0.0009315247880294919,0.020758463,57.043552,Clouds
134814.038,0.0019795503467321396,-0.0006718933582305908,-0.0009891390800476074,-0.0038482157979160547,-0.0010296977125108242,-0.0005120073910802603,0.019165369,57.043552,Clouds
134814.068,0.00048491545021533966,-0.0009495625272393227,-0.0024541616439819336,-5.320645868778229e-05,-0.0011705075157806277,-0.0017472400795668364,0.018899752,57.043552,Clouds
134814.097,-0.0010500969365239143,-0.0009524207562208176,-0.0018741488456726074,-0.0014312330167740583,-0.001727604423649609,0.0002084790903609246,0.017246237,57.043552,Clouds
134814.127,0.001850535161793232,-0.0008089393377304077,-0.0020720958709716797,0.0010068269912153482,-0.0017343114595860243,-0.0011140303686261177,0.017193548,57.043552,Clouds
134814.157,0.0017069391906261444,-0.002138234209269285,-0.001523137092590332,-0.0033518406562507153,0.0012111844262108207,-0.0031896017026156187,0.016926177,57.043552,Clouds
134814.187,0.0006217686459422112,0.00011701276525855064,-0.0016603469848632812,0.002768948208540678,-0.001582990400493145,0.0007652442436665297,0.053118285,57.043552,Clouds
134814.217,-8.17691907286644e-05,0.0009931265376508236,-0.00011897087097167969,0.002357312710955739,0.000665307801682502,0.0012232214212417603,0.12809415,57.043552,Clouds
134814.247,0.0014292476698756218,0.0002270583063364029,-0.0016450285911560059,0.0005200793966650963,0.001980359200388193,-0.00020404538372531533,0.11157699,57.043552,Clouds
134814.277,0.000791880302131176,-0.0007777884602546692,-0.0014469623565673828,0.003075669752433896,0.0005733537254855037,-0.0002901179832406342,0.10684263,57.043552,Clouds
134814.307,0.000749749131500721,-0.00014521228149533272,-0.002072572708129883,-0.001763487234711647,-0.0033836569637060165,-0.0008320719352923334,0.10219323,57.043552,Clouds
134814.336,0.0009582685306668282,-0.0013243085704743862,-0.0006685853004455566,0.001074387924745679,-0.00018045961041934788,-0.0017353678122162819,0.09576599,57.043552,Clouds
134814.366,0.00021627824753522873,-0.0002703368663787842,-0.002728700637817383,0.0010030753910541534,-0.0007218651007860899,-0.0019293123623356223,0.089880206,57.043552,Clouds
134814.396,0.0014864280819892883,-0.0009880638681352139,-0.0021335482597351074,0.0004414771683514118,-0.00029050736338831484,-0.0010147463763132691,0.078495435,57.043552,Clouds
134814.426,0.0013149911537766457,-0.0007587946020066738,0.00010961294174194336,-0.0004195156507194042,-0.0011770845158025622,-0.0004291413933970034,0.07113871,57.043552,Clouds
134814.456,-9.544100612401962e-05,-0.00031076185405254364,-0.0006530880928039551,-0.002649908885359764,-0.003805821994319558,-0.0007796355639584363,0.066170245,57.043552,Clouds
134814.485,0.0011487919837236404,-3.162818029522896e-05,-0.0008665919303894043,0.001280331751331687,-0.001052196486853063,0.0010142188984900713,0.06623779,57.043552,Clouds
134814.515,0.0015154313296079636,-0.0007810471579432487,-0.0017206668853759766,-0.0012618915643543005,-0.0026370452251285315,0.002171342261135578,0.06501052,57.043552,Clouds
134814.545,0.0013679321855306625,-0.000731244683265686,-0.001461029052734375,7.073022425174713e-05,-0.000852768833283335,-0.0025357711128890514,0.056328278,57.043552,Clouds
134814.575,5.603954195976257e-05,-0.0007566800341010094,-0.001980304718017578,-0.0010933743324130774,0.0003940420283470303,-0.001922828028909862,0.05227761,57.043552,Clouds
134814.605,0.00010327529162168503,-0.0007874369621276855,-0.0011563897132873535,-0.0031372953671962023,0.00019912233983632177,0.0010718784760683775,0.050890494,57.043552,Clouds
134814.635,0.0010954681783914566,-0.0008824365213513374,-0.0015227198600769043,0.00043935002759099007,-0.0006737689254805446,0.0001944220857694745,0.13238087,57.043552,Clouds
134814.664,0.0014821132645010948,-0.0003078957088291645,-0.0003172755241394043,0.003139546839520335,0.00020996975945308805,0.0006891757366247475,0.12935387,57.043552,Clouds
134814.694,-0.00017781928181648254,2.6207417249679565e-05,-0.0008820891380310059,0.00188639503903687,-0.0013178866356611252,0.0014041680842638016,0.11947081,57.043552,Clouds
134814.724,0.0010549062862992287,-0.00011804606765508652,-0.0014922618865966797,0.0011729216203093529,0.0009750096360221505,0.002405421808362007,0.117013216,57.043552,Clouds
134814.754,0.0024414043873548508,0.0007138201035559177,-0.0016756057739257812,0.0015823193825781345,-0.0015172830317169428,0.0005793334566988051,0.11512361,57.043552,Clouds
134814.784,0.0017618397250771523,-0.0010880045592784882,-0.002881467342376709,0.0006375254597514868,-0.00023503426928073168,-0.0017691792454570532,0.10933561,57.043552,Clouds
134814.814,-0.0008209133520722389,-0.0017966008745133877,-0.0024694204330444336,-0.0006652369629591703,-0.002514444524422288,-0.001962801907211542,0.10507624,57.043552,Clouds
134814.843,0.00047323107719421387,-0.0008288421668112278,-0.001980602741241455,-0.0026444587856531143,-0.0009255704935640097,-7.992004975676537e-05,0.17907782,57.043552,Clouds
134814.873,0.0025579920038580894,0.0003594644367694855,-0.0018433928489685059,0.0008981996215879917,-0.001873580738902092,-0.00013867311645299196,0.17164625,57.043552,Clouds
134814.903,0.0004767244681715965,-0.001140025444328785,-0.0023623108863830566,0.0009704716503620148,-0.0003771718475036323,0.0014265368226915598,0.17381835,57.043552,Clouds
134814.933,-0.0021620336920022964,-0.0004707053303718567,-0.0006989836692810059,-0.0027360590174794197,-0.0013406870421022177,0.0018273168243467808,0.15532377,57.043552,Clouds
134814.963,0.002066965214908123,-0.0008859727531671524,-0.0006992220878601074,-0.0009322550613433123,0.000620643375441432,-0.00035114865750074387,0.1465076,57.043552,Clouds
134814.992,0.0036490224301815033,0.0002569751814007759,-0.0013707280158996582,-0.0003079164307564497,-0.0011227262439206243,-0.0016385465860366821,0.12118803,57.043552,Clouds
134815.022,-0.0023974794894456863,-0.0014597713015973568,-0.001858830451965332,-0.002666750457137823,-0.0025736792013049126,0.001296191941946745,0.11023906,57.043552,Clouds
134815.052,-0.00037328246980905533,-0.0012948201037943363,-0.001050114631652832,-0.0013104996178299189,7.871598063502461e-05,-0.00023700582096353173,0.100140594,57.043552,Clouds
134815.082,0.0034509655088186264,-2.4992506951093674e-05,-0.0019504427909851074,0.00038383319042623043,-0.00025887746596708894,-0.000880424864590168,0.088444486,57.043552,Clouds
134815.111,0.0013106679543852806,-0.0004463302902877331,-0.0014927387237548828,-8.905329741537571e-05,-0.0014129073824733496,-0.00267763901501894,0.08332954,57.043552,Clouds
134815.142,-0.0024772733449935913,-0.0006351782940328121,-0.0003026127815246582,0.00011446862481534481,-0.0019237021915614605,-0.0018165076617151499,0.07285671,57.043552,Clouds
134815.172,0.0016103889793157578,-0.00013079354539513588,-0.001599729061126709,-0.0018196719465777278,-0.001384229282848537,-0.0007136209751479328,0.08073398,57.043552,Clouds
134815.202,0.003443527966737747,-0.00025209086015820503,-0.0015386343002319336,0.0011684717610478401,0.001209522713907063,0.000846457201987505,0.09488132,57.043552,Clouds
134815.231,-0.0015113800764083862,-0.0015521650202572346,-0.001065671443939209,0.0032924609258770943,-0.0018542478792369366,-0.0006440692814067006,0.09972893,57.043552,Clouds
134815.261,-0.0012855855748057365,0.0008300882764160633,-0.00016564130783081055,0.0010684214066714048,-0.000238112173974514,0.00366974831558764,0.089941904,57.043552,Clouds
134815.291,0.0011640097945928574,-0.00011611729860305786,-0.0014627575874328613,0.0017891733441501856,0.0002863701665773988,-0.0007234189542941749,0.08190147,57.043552,Clouds
134815.321,0.001297452487051487,-0.0017870371229946613,-0.0015853047370910645,-0.0028819660656154156,-0.0012399263214319944,0.001984667032957077,0.07722578,57.043552,Clouds
134815.350,-0.0007332870736718178,-0.00047590164467692375,-0.002378225326538086,0.0015208330005407333,9.502630564384162e-05,0.0006821756833232939,0.073798165,57.043552,Clouds
134815.380,0.00018280930817127228,-0.0006368011236190796,-0.0007911920547485352,0.0005629519000649452,0.00010411969560664147,0.0002592391683720052,0.07390779,57.043552,Clouds
134815.410,0.0008672745898365974,-0.0004664468578994274,-0.0012028813362121582,-0.0017262289766222239,-0.0015867510810494423,0.001636441913433373,0.08562719,57.043552,Clouds
134815.440,0.00040654465556144714,-0.0009658127091825008,-0.0014772415161132812,-0.0022999297361820936,-0.0014309468679130077,0.00011577311670407653,0.081341095,57.043552,Clouds
134815.470,0.00021127518266439438,0.00040641753003001213,-0.0017363429069519043,-0.0010008160024881363,-0.0001757305726641789,-0.00036872323835268617,0.08733503,57.043552,Clouds
134815.500,0.00023067276924848557,3.426242619752884e-05,-0.0012330412864685059,-0.0003191002178937197,0.001284552738070488,0.0004013561992906034,0.08478073,57.043552,Clouds
134815.529,0.002875395119190216,0.0005049752071499825,-0.0012787580490112305,0.0002707219682633877,-0.0013975154142826796,0.0011483849957585335,0.10624323,57.043552,Clouds
134815.559,8.224882185459137e-05,-0.0014149192720651627,-0.0020722150802612305,0.0034548984840512276,-0.0020287311635911465,-0.001589460065588355,0.103880614,57.043552,Clouds
134815.589,-0.00044845324009656906,-0.00035424064844846725,-0.0006987452507019043,-0.00021887035109102726,0.0009360844269394875,-0.0019175419583916664,0.09604482,57.043552,Clouds
134815.619,0.002282089553773403,-0.0002577095292508602,-0.0018281340599060059,-0.0007048100233078003,-0.0003529350215103477,0.0012199399061501026,0.093559146,57.043552,Clouds
134815.649,0.001285065896809101,-0.0006902986206114292,-0.0027436017990112305,-0.0008696711156517267,0.0008755050366744399,0.00013995013432577252,0.085719,57.043552,Clouds
134815.679,-0.0009017288684844971,-0.0007776934653520584,-0.0004089474678039551,0.001998212421312928,-6.658122583758086e-05,0.0006640531937591732,0.08032244,57.043552,Clouds
134815.708,0.001510011963546276,-0.0007815980352461338,-0.0003783702850341797,-0.0009024313185364008,0.0008742687641642988,0.002907990477979183,0.07530774,57.043552,Clouds
134815.738,0.001966872252523899,-0.0004553678445518017,-0.0010498762130737305,-0.0005468539893627167,-0.0005262626218609512,2.712372224777937e-05,0.063229434,57.043552,Clouds
134815.768,0.0010115411132574081,-0.0004610898904502392,-0.0011870265007019043,0.0001420765183866024,-0.00041969079757109284,-0.0004067874397151172,0.059393622,57.043552,Clouds
134815.798,-0.0007056007161736488,-0.0012666434049606323,-0.002209186553955078,-0.0019300368148833513,0.0013232643250375986,-0.0010228690225630999,0.054742668,57.043552,Clouds
134815.828,0.0021125711500644684,0.0005145417526364326,0.00012558698654174805,0.002263454720377922,0.0003867745981551707,-0.0026065190322697163,0.046314362,57.043552,Clouds
134815.858,0.00025716982781887054,-4.9462541937828064e-05,-0.002056419849395752,0.0010578318033367395,-0.001277482369914651,0.00024661151110194623,0.045409486,57.043552,Clouds
134815.887,0.0011880174279212952,-0.0006820927374064922,-0.0011562108993530273,0.0006097692530602217,-0.0004396302974782884,0.002188765909522772,0.043167047,57.043552,Clouds
134815.917,0.0009094476699829102,-0.0005166972987353802,-0.0019646883010864258,-0.0005897292867302895,0.0010275578824803233,-0.0005278221797198057,0.04308403,57.043552,Clouds
134815.947,0.000306474044919014,-0.00047338521108031273,-0.0012478232383728027,0.0013841264881193638,0.0034683183766901493,-0.0003491459065116942,0.040673435,57.043552,Clouds
134815.977,0.0015396345406770706,-0.0008079977706074715,-0.0019955039024353027,0.0003283203113824129,-0.00171933404635638,0.0020420560613274574,0.03581695,57.043552,Clouds
134816.007,0.0009853532537817955,-0.0009770141914486885,-0.000545799732208252,0.0008985360618680716,0.0021706114057451487,-0.00021814520005136728,0.034218315,57.043552,Clouds
134816.037,0.0007661692798137665,-0.0001550856977701187,-0.0011258125305175781,0.002030913718044758,0.0022386182099580765,-0.00023019884247332811,0.032862764,57.043552,Clouds
134816.066,-0.0004043290391564369,-0.0015038908459246159,-0.003841876983642578,-0.004769705235958099,0.0012701976811513305,-0.00038850423879921436,0.031567063,57.043552,Clouds
134816.096,0.00030037201941013336,-0.000424419529736042,-0.0010950565338134766,-0.0004176103975623846,0.0020630997605621815,-0.0008690896211192012,0.04946438,57.043552,Clouds
134816.125,0.0012430241331458092,-0.0004809107631444931,-0.0014767646789550781,-0.0007636004593223333,5.66208764212206e-05,0.0014807372353971004,0.04435521,57.043552,Clouds
134816.156,0.0011074049398303032,-0.0005033169873058796,-0.001461625099182129,0.00020369794219732285,0.0003637524205259979,0.001094556413590908,0.04293654,57.043552,Clouds
134816.186,0.00021511036902666092,-0.0016559655778110027,-0.0016904473304748535,0.0008309651166200638,-0.00033830536995083094,0.00023115196381695569,0.04880604,57.043552,Clouds
134816.216,-0.00016418565064668655,-0.00046241749078035355,-0.0009884834289550781,0.001233931165188551,-0.0013913587899878621,-0.0004998243530280888,0.04683222,57.043552,Clouds
134816.245,0.002011789008975029,-0.00021016644313931465,-0.0016143321990966797,-0.0004464325029402971,0.0007344698533415794,-0.0012418038677424192,0.04467471,57.043552,Clouds
134816.275,0.0004208916798233986,0.00014488771557807922,-0.002255558967590332,0.002026153728365898,0.0007324931211769581,0.0012165256775915623,0.040875286,57.043552,Clouds
134816.305,0.0006966916844248772,-0.0009098458103835583,-0.00039440393447875977,0.0035838899202644825,-0.00023978008539415896,-0.0006079443264752626,0.039184142,57.043552,Clouds
134816.335,-0.00022257957607507706,-0.000543676782399416,-0.0007450580596923828,-0.00037460681051015854,-0.0018946226919069886,0.0005969072226434946,0.034667782,57.043552,Clouds
134816.365,0.000781521201133728,-0.00058711227029562,-0.0024389028549194336,0.00024861376732587814,0.0019581725355237722,0.0012364140711724758,0.03381573,57.043552,Clouds
134816.395,0.0006454596295952797,-0.0006468985229730606,-0.002149224281311035,-0.002741838339716196,-0.001688308664597571,-0.0010853057028725743,0.038533583,57.043552,Clouds
134816.424,0.002322431653738022,-0.0006036241538822651,-0.0007759928703308105,-0.00017863349057734013,-0.00018306044512428343,-0.0004460744094103575,0.05691931,57.043552,Clouds
134816.454,-0.00044478196650743484,-0.0008457014337182045,-0.0017219185829162598,-0.0020461445674300194,-0.00031342479633167386,-0.0018891198560595512,0.07079551,57.043552,Clouds
134816.484,-0.0001099761575460434,0.0001863609068095684,-0.0005928874015808105,-0.001918401219882071,-0.0009381993440911174,-0.000724536832422018,0.06596728,57.043552,Clouds
134816.514,0.0031161699444055557,6.971322000026703e-05,-0.0006849169731140137,0.0018692852463573217,-0.0006430460489355028,0.0011048943269997835,0.0620639,57.043552,Clouds
134816.544,0.0016040103510022163,-0.0007099984213709831,-0.0008069872856140137,0.00030603213235735893,-0.001087305834516883,-0.0018402880523353815,0.058560573,57.043552,Clouds