Timestamp,AccelX,AccelY,AccelZ,GyroX,GyroY,GyroZ,AudioLevel,LightLevel,Weather
134958.263,0.005603710189461708,-0.006464459002017975,7.092952728271484e-05,-0.001593266031704843,0.0002601333544589579,-0.00030334992334246635,0.23666489,57.043552,Clouds
134958.293,0.005633488297462463,-0.006228437647223473,-0.00037157535552978516,0.002034059027209878,0.00209788023494184,0.0002769186976365745,0.19579338,57.043552,Clouds
134958.323,0.007038310170173645,-0.005943950731307268,-0.0011040568351745605,-0.002986142411828041,0.0012157646706327796,0.0011133067309856415,0.17540099,57.043552,Clouds
134958.354,0.005619027651846409,-0.005501705687493086,0.0006811022758483887,-0.0017873444594442844,0.0020289651583880186,0.0010927726980298758,0.15837148,57.043552,Clouds
134958.383,0.004400938283652067,-0.006111336871981621,-0.00023430585861206055,0.00018291152082383633,0.000968433974776417,0.001165901543572545,0.13407029,57.043552,Clouds
134958.413,0.00527385575696826,-0.006101406645029783,-0.001119375228881836,0.002402853686362505,0.0007845768705010414,0.00012953951954841614,0.12102308,57.043552,Clouds
134958.443,0.0058601973578333855,-0.005540921818464994,0.0002995133399963379,-0.00012269080616533756,0.004196605179458857,0.0006346598383970559,0.10039171,57.043552,Clouds
134958.473,0.0071268025785684586,-0.005129888653755188,-0.0016995668411254883,-0.0035217327531427145,-0.0012897910783067346,0.00010924506932497025,0.09156802,57.043552,Clouds
134958.503,0.005841046571731567,-0.005479702726006508,-0.001196146011352539,-0.0004598950035870075,-0.0008645978523418307,0.0005594565882347524,0.08381829,57.043552,Clouds
134958.532,0.005341856274753809,-0.00591892097145319,-0.000845491886138916,0.0010191667824983597,0.0021726670674979687,-0.0018122808542102575,0.071487606,57.043552,Clouds
134958.562,0.006472024600952864,-0.006555552128702402,-0.001517176628112793,0.0017049035523086786,-0.0029518245719373226,-0.002056191209703684,0.068140045,57.043552,Clouds
134958.592,0.0053674099035561085,-0.005503111518919468,0.00019180774688720703,0.0008797112386673689,-0.0005223144544288516,-0.0012642189394682646,0.0590705,57.043552,Clouds
134958.622,0.0052152154967188835,-0.005779644008725882,0.000634312629699707,-0.0017430076841264963,-0.0019466569647192955,0.0017924814019352198,0.055641416,57.043552,Clouds
134958.652,0.005114683415740728,-0.005457975436002016,-0.000677943229675293,0.0025415392592549324,-0.0022799107246100903,-0.0014704875648021698,0.052621808,57.043552,Clouds
134958.682,0.006564081180840731,-0.005505179520696402,-0.00034230947494506836,-0.001231533708050847,0.0027229636907577515,0.0022879091557115316,0.046868008,57.043552,Clouds
134958.711,0.00666079530492425,-0.005474018398672342,-0.0005714893341064453,-0.0027750057633966208,0.0007065876270644367,-0.0019215958891436458,0.04428762,57.043552,Clouds
134958.741,0.00583796389400959,-0.005616967100650072,-0.0004799365997314453,-0.001764353713952005,1.5174329746514559e-05,0.0018829433247447014,0.039253876,57.043552,Clouds
134958.771,0.005212252493947744,-0.006263791583478451,-0.0006174445152282715,-0.0027875720988959074,-0.0005371219012886286,-0.0015026181936264038,0.037560858,57.043552,Clouds
134958.801,0.006330276373773813,-0.005433879792690277,0.0005421042442321777,0.0012418911792337894,-0.0019368265056982636,0.0017821959918364882,0.034535155,57.043552,Clouds
134958.831,0.006480215582996607,-0.004927999339997768,-0.00019049644470214844,0.00013003265485167503,-0.0007203429704532027,0.0017077873926609755,0.029127102,57.043552,Clouds
134958.861,0.004467773716896772,-0.006619551684707403,-0.00020587444305419922,-0.0016254117945209146,0.0011662994511425495,0.0005258920136839151,0.02652623,57.043552,Clouds
134958.890,0.00623308215290308,-0.0056625367142260075,3.802776336669922e-05,0.0012558316811919212,-0.00023961788974702358,-0.00033273157896474004,0.02303743,57.043552,Clouds
134958.920,0.006360480561852455,-0.005061977077275515,-0.00043529272079467773,0.0022379776928573847,-0.00041913840686902404,-0.003317855764180422,0.021381918,57.043552,Clouds
134958.950,0.006474865134805441,-0.0055693769827485085,-0.0007250308990478516,-0.0012134592980146408,-0.0019603590480983257,0.001793078612536192,0.020201875,57.043552,Clouds
134958.980,0.00499415909871459,-0.006004930939525366,0.00043451786041259766,-0.00023831333965063095,-0.0015097615541890264,-0.001614103326573968,0.017848235,57.043552,Clouds
134959.010,0.006749923340976238,-0.005802481435239315,0.0004038810729980469,-0.0011276938021183014,0.00032738212030380964,4.447600804269314e-05,0.037430942,57.043552,Clouds
134959.039,0.005978922359645367,-0.005096756387501955,-0.00040477514266967773,0.00037634256295859814,-0.0010319201974198222,0.0010950299911201,0.037266288,57.043552,Clouds
134959.069,0.004415477626025677,-0.005968080367892981,0.0005563497543334961,0.0004412329290062189,0.0001320762385148555,0.0012025985633954406,0.033272836,57.043552,Clouds
134959.099,0.005478926934301853,-0.0052350228652358055,0.0005257129669189453,0.000943854684010148,-0.0004212870553601533,-0.00016376038547605276,0.036840543,57.043552,Clouds
134959.129,0.0058916062116622925,-0.0044149961322546005,0.00018990039825439453,-0.0030283015221357346,-0.0011808215640485287,0.00018555985298007727,0.031925846,57.043552,Clouds
134959.158,0.005243523977696896,-0.005844391882419586,-0.00017648935317993164,-1.3194512575864792e-06,0.00018831808120012283,-0.001576809911057353,0.031107277,57.043552,Clouds
134959.188,0.0051963599398732185,-0.00583009934052825,0.0002352595329284668,-0.0006724325940012932,-0.00024597480660304427,0.0012937041465193033,0.028397655,57.043552,Clouds
134959.218,0.005807931534945965,-0.00441798847168684,0.00018918514251708984,0.0028239956591278315,-0.0008144984021782875,0.001969977281987667,0.026826253,57.043552,Clouds
134959.247,0.006069791968911886,-0.004544336814433336,-0.0008791089057922363,0.0033574739936739206,0.0010259565897285938,-7.925869431346655e-05,0.026041843,57.043552,Clouds
134959.278,0.0045569417998194695,-0.005570962093770504,-4.00543212890625e-05,0.00035449257120490074,-0.0003554811410140246,-0.00014067033771425486,0.022692068,57.043552,Clouds
134959.308,0.004734870046377182,-0.005069351755082607,-0.0002690553665161133,0.0006335289217531681,-0.0011967150494456291,0.0023375297896564007,0.021395614,57.043552,Clouds
134959.337,0.006321924738585949,-0.004827242344617844,-0.00031495094299316406,-0.002192580373957753,0.0010158028453588486,0.00304264179430902,0.020434005,57.043552,Clouds
134959.367,0.0049261911772191525,-0.005048861261457205,-0.00017780065536499023,-0.003589161904528737,0.0005317158065736294,-0.00048696668818593025,0.018385451,57.043552,Clouds
134959.397,0.004587257280945778,-0.005700224079191685,-0.0004984736442565918,-0.00012029893696308136,-0.001610284554772079,0.00047171107144095004,0.017731635,57.043552,Clouds
134959.427,0.006005437579005957,-0.005365791264921427,6.586313247680664e-05,-0.0024505783803761005,-0.0003071382234338671,0.0011263606138527393,0.01581839,57.043552,Clouds
134959.457,0.006597741506993771,-0.005225616507232189,0.00015717744827270508,-0.00012718630023300648,-9.226264955941588e-05,-0.0013334418181329966,0.014917766,57.043552,Clouds
134959.487,0.004860992543399334,-0.005244912579655647,-0.0007126331329345703,0.0016422830522060394,2.0974286599084735e-05,0.001330869970843196,0.013970833,57.043552,Clouds
134959.516,0.005523571278899908,-0.005061376839876175,0.0002636909484863281,0.0008408380672335625,0.0008305057999677956,0.0010920302011072636,0.013742619,57.043552,Clouds
134959.546,0.00559780839830637,-0.004573138430714607,-0.0005910396575927734,0.001422341214492917,0.0012417754624038935,-0.0015537068247795105,0.013013503,57.043552,Clouds
134959.576,0.004648691043257713,-0.004563496448099613,0.00044649839401245117,0.00022837496362626553,0.0007807738147675991,0.0014869808219373226,0.011795566,57.043552,Clouds
134959.606,0.005079273600131273,-0.005354356020689011,0.0008126497268676758,-0.0002519052941352129,-0.0017555609811097383,0.0011802536901086569,0.011709155,57.043552,Clouds
134959.636,0.004719862248748541,-0.005180390551686287,-0.000850677490234375,-0.0005643526092171669,0.00011328962864354253,0.002087835455313325,0.013084153,57.043552,Clouds
134959.666,0.005664719268679619,-0.005056548863649368,0.0004919767379760742,0.001015800517052412,0.00026080067618750036,0.001675687381066382,0.017259724,57.043552,Clouds
134959.695,0.005428812466561794,-0.0048446753062307835,-4.208087921142578e-05,0.0016507867258042097,-0.0004132781468797475,-0.00011323398211970925,0.030526638,57.043552,Clouds
134959.725,0.005126988049596548,-0.004589234013110399,-0.0006984472274780273,0.0009085023775696754,0.0011813261080533266,0.0009062000317499042,0.049150407,57.043552,Clouds
134959.755,0.006410735659301281,-0.004823582246899605,0.0006442070007324219,0.000543822068721056,0.0006911244126968086,-0.00016903888899832964,0.052246522,57.043552,Clouds
134959.785,0.005533038172870874,-0.004687297157943249,0.0005982518196105957,-0.00044568744488060474,0.0012236444745212793,-0.0003034892142750323,0.05246151,57.043552,Clouds
134959.815,0.005042580887675285,-0.004417982883751392,-0.0002104043960571289,-0.0024446810130029917,-0.0009250002913177013,0.0009200545027852058,0.05890769,57.043552,Clouds
134959.844,0.004918977152556181,-0.004706465173512697,0.0008728504180908203,0.0016006419900804758,-0.0014643403701484203,0.0011355269234627485,0.056315847,57.043552,Clouds
134959.874,0.00506193283945322,-0.0045306067913770676,0.0007965564727783203,-0.00024181557819247246,-0.0013237625826150179,-0.00017962243873625994,0.051958106,57.043552,Clouds
134959.904,0.0051251850090920925,-0.004782375879585743,-0.0007293224334716797,0.0003955236170440912,-0.002252093981951475,0.0009579384350217879,0.05153445,57.043552,Clouds
134959.934,0.005141989793628454,-0.004572095815092325,-0.0004547238349914551,0.0015113318804651499,-0.00010361957538407296,3.692315658554435e-05,0.04843834,57.043552,Clouds
134959.964,0.001982453279197216,-0.00016082683578133583,0.0032534003257751465,0.0008353483863174915,-0.0008507540333084762,-0.0005646845675073564,0.06195491,57.043552,Clouds
134959.994,0.007684772368520498,-0.009431930258870125,-0.002316117286682129,-0.0008783172816038132,0.00045239223982207477,0.0003015350375790149,0.057089537,57.043552,Clouds
135000.024,0.005688167642802,-0.006004123482853174,-0.0022858381271362305,0.0025955727323889732,0.00038374928408302367,0.0010947424452751875,0.04797714,57.043552,Clouds
135000.053,0.0053277029655873775,-0.002371659968048334,0.000567317008972168,-0.0003375255037099123,0.0002364151441724971,0.0015702086966484785,0.044127066,57.043552,Clouds
135000.083,0.005341355223208666,-0.004767950624227524,0.0002772808074951172,-0.004098556004464626,0.0023099153768271208,-0.0003442208399064839,0.0400856,57.043552,Clouds
135000.112,0.005524124950170517,-0.005312246270477772,-0.00010442733764648438,-0.0013043995713815093,0.00030194350983947515,0.0019208015874028206,0.034082804,57.043552,Clouds
135000.142,0.0047363052144646645,-0.004087116569280624,0.00012421607971191406,0.0008605322800576687,0.0003166699025314301,0.0021529579535126686,0.0321074,57.043552,Clouds
135000.174,0.005920647643506527,-0.003697149222716689,1.722574234008789e-05,0.0010505861137062311,-0.0010904569644480944,0.0016521124634891748,0.059825156,57.043552,Clouds
135000.203,0.004705079365521669,-0.003903837874531746,0.0009478330612182617,0.0004939043428748846,-0.00020758205209858716,-0.0006547739030793309,0.056894585,57.043552,Clouds
135000.232,0.004222577903419733,-0.004772088024765253,0.0005661249160766602,0.0012030517682433128,-0.0004688921326305717,-0.000755201792344451,0.053690653,57.043552,Clouds
135000.262,0.004908520728349686,-0.004396140109747648,-0.0001817941665649414,0.0008191082160919905,-0.00028020088211633265,0.0003458813298493624,0.049978014,57.043552,Clouds
135000.292,0.0055393436923623085,-0.004059238824993372,-0.0007463693618774414,-0.0007380149327218533,0.0018330062739551067,0.0011305880034342408,0.047766197,57.043552,Clouds
135000.322,0.004774167668074369,-0.004454982466995716,0.000947117805480957,0.0025789744686335325,-0.00046371720964089036,0.003069169819355011,0.04165922,57.043552,Clouds
135000.352,0.004600035026669502,-0.0036659459583461285,0.0006874799728393555,0.0009235437028110027,-0.0018012668006122112,0.000836435123346746,0.03881833,57.043552,Clouds
135000.382,0.005652186460793018,-0.004350266419351101,-0.0008841753005981445,0.002105342922732234,-0.0002253943239338696,-0.002669305307790637,0.036366478,57.043552,Clouds
135000.411,0.005382897332310677,-0.004080271348357201,0.0004736781120300293,0.0008388280402868986,-1.692012301646173e-05,0.0012499637668952346,0.03153246,57.043552,Clouds
135000.441,0.004516391083598137,-0.0035139673855155706,0.00029027462005615234,-0.0004574214108288288,0.0017843660898506641,0.0010371949756518006,0.02939051,57.043552,Clouds
135000.471,0.005132646765559912,-0.005081662442535162,-0.0008542537689208984,-0.00022900360636413097,0.0003752628108486533,-0.0004339051665738225,0.025847888,57.043552,Clouds
135000.501,0.004846370778977871,-0.0038284335751086473,-0.0005647540092468262,-0.0008529720362275839,4.7040157369337976e-05,0.0004843661736231297,0.024268579,57.043552,Clouds
135000.531,0.005610650405287743,-0.004287296906113625,-0.00015294551849365234,-0.0021645622327923775,-0.0006794160581193864,-0.002894338220357895,0.023507768,57.043552,Clouds
135000.560,0.005026620347052813,-0.004313303157687187,-6.145238876342773e-05,-0.0030388180166482925,0.000740344577934593,0.001163479289971292,0.02103985,57.043552,Clouds
135000.590,0.004777215421199799,-0.0034840486478060484,-0.0006262660026550293,0.0015275629702955484,-0.0010344963520765305,0.000519696157425642,0.019802663,57.043552,Clouds
135000.620,0.004650389309972525,-0.0037663450930267572,-0.0007026195526123047,-0.0011501563712954521,-0.0011465968564152718,-0.0005708913668058813,0.01865505,57.043552,Clouds
135000.650,0.005041202530264854,-0.004041281994432211,4.500150680541992e-05,-0.0023078471422195435,-0.0003520427271723747,-0.0023257583379745483,0.018117752,57.043552,Clouds
135000.680,0.005106944590806961,-0.0029842955991625786,0.0005179643630981445,0.002272579353302717,0.001261938363313675,0.0013014388969168067,0.017866723,57.043552,Clouds
135000.710,0.0052417125552892685,-0.0042804148979485035,0.00024276971817016602,0.003672210266813636,-0.0008622584864497185,-0.002799948677420616,0.032135658,57.043552,Clouds
135000.740,0.004678603261709213,-0.0043385643512010574,-0.0012831687927246094,0.0030159337911754847,-0.00145275320392102,-0.00028721074340865016,0.030761046,57.043552,Clouds
135000.770,0.005079429596662521,-0.004682835191488266,-0.00016927719116210938,0.0003447204362601042,0.0008442148100584745,0.0009105888311751187,0.027816612,57.043552,Clouds
135000.799,0.004398331046104431,-0.0036421213299036026,0.00028836727142333984,-2.3991800844669342e-05,0.0023587606847286224,-0.0005201626918278635,0.050029732,57.043552,Clouds
135000.828,0.004410651512444019,-0.003814788069576025,-0.0008715987205505371,0.003602487500756979,-0.002638596575707197,0.0005844416446052492,0.06062763,57.043552,Clouds
135000.858,0.00462691206485033,-0.0038733044639229774,-0.0005818009376525879,-0.0011081204283982515,6.65266124997288e-05,-0.0001711729564704001,0.08249351,57.043552,Clouds
135000.888,0.004438974894583225,-0.004475176800042391,0.00039440393447875977,-0.002022581174969673,0.0002674612624105066,-0.0004771016538143158,0.079721406,57.043552,Clouds
135000.919,0.004736463539302349,-0.003952358849346638,0.00021117925643920898,0.002166111022233963,-0.0006088857771828771,0.0008910588803701103,0.06886195,57.043552,Clouds
135000.948,0.004257334396243095,-0.0034593751188367605,-0.0010248422622680664,-0.0020882817916572094,-0.0003202652442269027,0.0012550805695354939,0.066057675,57.043552,Clouds
135000.978,0.00422735046595335,-0.0037614372558891773,0.0008060932159423828,-0.002147229854017496,0.0012493382673710585,0.0007493015727959573,0.06259299,57.043552,Clouds
135001.008,0.004733164794743061,-0.003672149032354355,0.00030219554901123047,8.841441012918949e-05,-0.0004801168979611248,0.0012378925457596779,0.060426503,57.043552,Clouds
135001.038,0.00542596448212862,-0.00443860562518239,-0.0006135702133178711,-0.0007517025806009769,0.0003696829080581665,0.0006064465851522982,0.064098194,57.043552,Clouds
135001.067,0.00401220191270113,-0.003465260611847043,-3.3855438232421875e-05,0.00018295086920261383,-0.0006251059239730239,0.0022991278674453497,0.058311757,57.043552,Clouds
135001.097,0.005192301236093044,-0.003725954797118902,-0.0004303455352783203,0.002222019014880061,0.00012151348346378654,0.001707357121631503,0.05516175,57.043552,Clouds
135001.127,0.005552693270146847,-0.0030314656905829906,0.0003479123115539551,-0.0015760936075821519,0.0006034304387867451,-0.0013602757826447487,0.05200512,57.043552,Clouds
135001.157,0.004643242806196213,-0.003456950420513749,-0.0012392997741699219,-0.0015889775240793824,0.0005355096654966474,-0.000639281002804637,0.045039833,57.043552,Clouds
135001.187,0.004532041028141975,-0.003449835814535618,-0.0005679726600646973,-0.00038939667865633965,0.0030109582003206015,-0.0001383866765536368,0.04369703,57.043552,Clouds
135001.217,0.004989176988601685,-0.0031993379816412926,-0.0004004240036010742,0.0036704055964946747,0.0004093658644706011,0.0006258876528590918,0.06709071,57.043552,Clouds
135001.247,0.005306641571223736,-0.0033388719893991947,0.0005606412887573242,-0.001879574847407639,0.0002585414331406355,0.0028790098149329424,0.06420684,57.043552,Clouds
135001.276,0.0043423837050795555,-0.003123369300737977,0.00014865398406982422,-0.0008140932768583298,-0.00023716552823316306,0.0013843901688233018,0.059920475,57.043552,Clouds
135001.306,0.005054044537246227,-0.002962324535474181,-0.00024813413619995117,-0.0011101583950221539,0.0012362581910565495,0.00016654329374432564,0.057528578,57.043552,Clouds
135001.336,0.004320078529417515,-0.0036044747103005648,0.00027066469192504883,-0.00019662827253341675,-1.925433025462553e-05,-0.0020144726149737835,0.05358859,57.043552,Clouds
135001.366,0.0049371616914868355,-0.0036195004358887672,0.00043827295303344727,-0.0001005453523248434,0.0011660369345918298,0.002885404508560896,0.04772292,57.043552,Clouds
135001.396,0.004459819756448269,-0.0031919339671730995,0.00013297796249389648,-0.0011630768422037363,-0.00021267923875711858,0.0013458608882501721,0.045722693,57.043552,Clouds
135001.425,0.004344229586422443,-0.003960242960602045,-0.0003705620765686035,-0.0021593677811324596,0.002109363442286849,-0.0010058179032057524,0.043535046,57.043552,Clouds
135001.455,0.0045920684933662415,-0.0033668784890323877,0.00013262033462524414,-0.0017284436617046595,-0.0011358741903677583,-0.0010656120721250772,0.04091445,57.043552,Clouds
135001.485,0.003940518945455551,-0.0033448985777795315,4.082918167114258e-05,0.0004422927740961313,0.001202311017550528,-0.0007045105448924005,0.038490728,57.043552,Clouds
135001.515,0.004123250022530556,-0.0035489709116518497,-0.0006764531135559082,0.0010101108346134424,-0.0003634841996245086,-0.002925384324043989,0.034538995,57.043552,Clouds
135001.545,0.004607519134879112,-0.003770971205085516,0.0004982948303222656,0.0005545453168451786,0.0008399552898481488,-0.00015924888430163264,0.034023803,57.043552,Clouds
135001.574,0.0038007302209734917,-0.003050179686397314,0.00017791986465454102,0.000536586856469512,0.0016716901445761323,-0.0009948279475793242,0.03290695,57.043552,Clouds
135001.605,0.0036812638863921165,-0.003035116707906127,0.00023871660232543945,0.0011070652399212122,0.00046281347749754786,-0.0014588782796636224,0.029313471,57.043552,Clouds
135001.634,0.004071816802024841,-0.0034199159126728773,-0.0005855560302734375,0.00028778123669326305,0.00216129538603127,-0.000990761793218553,0.027761577,57.043552,Clouds
135001.664,0.004006997682154179,-0.003491367679089308,-0.00032639503479003906,-0.0009632210712879896,-0.001443526241928339,-0.00024092639796435833,0.026091993,57.043552,Clouds
135001.694,0.004785650409758091,-0.0031505560036748648,-0.0006012320518493652,0.0005335411988198757,0.0009202439105138183,0.0005333590088412166,0.024807485,57.043552,Clouds
135001.724,0.005008881911635399,-0.0028809288050979376,0.0002530813217163086,0.0023113328497856855,-0.001779414713382721,-5.7066266890615225e-05,0.024585051,57.043552,Clouds
135001.754,0.004701278172433376,-0.0031835599802434444,0.00013065338134765625,0.0007060524076223373,0.0011305335210636258,-0.00017189327627420425,0.03340798,57.043552,Clouds
135001.783,0.004717240110039711,-0.0025642828550189734,-6.67572021484375e-06,0.0022371981758624315,-0.001810424029827118,0.0002931862254627049,0.032987952,57.043552,Clouds
135001.813,0.00351566169410944,-0.0031020939350128174,-0.00034248828887939453,0.0013228447642177343,-0.0006188282277435064,-0.0003360183327458799,0.031181172,57.043552,Clouds
135001.843,0.005126543343067169,-0.003271674970164895,-0.0010901689529418945,0.0013320024590939283,-0.0017784715164452791,-0.001336000394076109,0.029420892,57.043552,Clouds
135001.873,0.004817461594939232,-0.0037870032247155905,-0.0001901388168334961,-0.00143725355155766,-0.0015061059966683388,0.0003033793473150581,0.033794947,57.043552,Clouds
135001.903,0.004748926497995853,-0.003495476208627224,-0.00034290552139282227,-0.0016539741773158312,0.0012203622609376907,0.0007680259295739233,0.03158968,57.043552,Clouds
135001.933,0.004312803037464619,-0.003843576181679964,-0.00014466047286987305,0.002264619106426835,-0.0015194518491625786,0.0002748815168160945,0.030063968,57.043552,Clouds
135001.962,0.004887172020971775,-0.002808114979416132,-0.00026667118072509766,-0.0004173489287495613,-0.0032042772509157658,2.893269993364811e-06,0.08401073,57.043552,Clouds
135001.992,0.0046715689823031425,-0.0034728781320154667,0.0005115270614624023,0.00177953508682549,0.0005255748983472586,0.00014830450527369976,0.08367278,57.043552,Clouds
135002.022,0.004030839540064335,-0.002653304487466812,0.0003281831741333008,0.003807704197242856,-9.603534999769181e-05,-0.0004252094659022987,0.07734543,57.043552,Clouds
135002.052,0.004011071287095547,-0.0032005375251173973,-0.0008012056350708008,-0.00029590772464871407,-0.0013343400787562132,0.002659240737557411,0.06485789,57.043552,Clouds
135002.081,0.003999028354883194,-0.0028625167906284332,2.2649765014648438e-05,-0.00029301480390131474,-0.0015090822707861662,0.0003747318696696311,0.0610279,57.043552,Clouds
135002.112,0.0039857299998402596,-0.003401140682399273,-0.00041997432708740234,0.0008414408657699823,-0.0016376826679334044,-0.0014641389716416597,0.050710697,57.043552,Clouds
135002.141,0.003646797500550747,-0.0034392965026199818,-0.00013023614883422852,-0.0011198495049029589,-0.0009188844123855233,-0.0005150756915099919,0.047177665,57.043552,Clouds
135002.174,0.004128734581172466,-0.0031391989905387163,-0.0006491541862487793,-0.0008267082739621401,-0.000671098125167191,0.00024812232004478574,0.04578339,57.043552,Clouds
135002.201,0.0039558252319693565,-0.003567090490832925,0.00029671192169189453,0.0010918888729065657,-7.92981154518202e-05,-0.0013795732520520687,0.04044823,57.043552,Clouds
135002.231,0.003938902169466019,-0.004058702848851681,0.00025087594985961914,-7.556355558335781e-05,-0.002231965307146311,-0.0005506475572474301,0.03712155,57.043552,Clouds
135002.261,0.00367022305727005,-0.003552637994289398,-0.0003902316093444824,0.00039908126927912235,-0.0009363346034660935,-5.708704702556133e-05,0.032873888,57.043552,Clouds
135002.291,0.005015385337173939,-0.003016498638316989,-0.00010037422180175781,0.0021739169023931026,7.133238250389695e-05,0.00039327191188931465,0.03421155,57.043552,Clouds
135002.320,0.004212124273180962,-0.003152959980070591,8.255243301391602e-05,0.00048762885853648186,0.0014891240280121565,-0.0008597619598731399,0.039088253,57.043552,Clouds
135002.350,0.004445862025022507,-0.003060412360355258,0.0005856752395629883,-0.000453718239441514,-0.000687548890709877,-0.0004353797994554043,0.03671506,57.043552,Clouds
135002.380,0.005109462887048721,-0.0027611376717686653,-0.0003909468650817871,0.0010847318917512894,-0.0022121791262179613,9.474402759224176e-06,0.035584018,57.043552,Clouds
135002.410,0.003959011286497116,-0.0027053605299443007,0.0006464719772338867,-0.00020109652541577816,-0.00161629484500736,-0.0002598096034489572,0.033332217,57.043552,Clouds
135002.440,0.004294267855584621,-0.0029896129854023457,-0.0007573366165161133,-0.00045025814324617386,0.0015656520845368505,0.0007059935014694929,0.03068381,57.043552,Clouds
135002.470,0.00474163331091404,-0.0037974221631884575,-0.00036084651947021484,-0.003447731724008918,0.001436959020793438,0.0023886756971478462,0.030091014,57.043552,Clouds
135002.499,0.004160196520388126,-0.0028236526995897293,-0.0009407401084899902,-0.002356959041208029,-5.296722520142794e-06,0.0006643596570938826,0.04006066,57.043552,Clouds
135002.529,0.004284650087356567,-0.002727715764194727,-0.00039130449295043945,-0.00024208053946495056,-0.000503296556416899,-0.0016410632524639368,0.037076294,57.043552,Clouds
135002.559,0.0028384746983647346,-0.002599201397970319,0.0009055733680725098,-0.0006025324109941721,0.0001280860451515764,-0.0001379544846713543,0.03429335,57.043552,Clouds
135002.589,0.004231521859765053,-0.0031734632793813944,-0.0003459453582763672,-0.0015996614238247275,0.0021538501605391502,-0.0008966770255938172,0.030544408,57.043552,Clouds
135002.618,0.0038893939927220345,-0.0035612285137176514,0.0011185407638549805,-0.002423070138320327,-0.001714622601866722,0.0008387172129005194,0.028145464,57.043552,Clouds
135002.648,0.0043829940259456635,-0.0033197193406522274,-0.0005748271942138672,-0.0019372694659978151,-0.0016336427070200443,-0.0002929830807261169,0.024865864,57.043552,Clouds
135002.678,0.0035741906613111496,-0.0025164533872157335,0.0001575946807861328,0.0023793457075953484,-0.00031025000498630106,-0.0002975446404889226,0.024314692,57.043552,Clouds
135002.708,0.004260123707354069,-0.002743675373494625,-0.000666201114654541,-0.00192349124699831,-7.70699989516288e-05,0.0022980892099440098,0.028416408,57.043552,Clouds
135002.738,0.003712792880833149,-0.0026199431158602238,-0.000498652458190918,0.0014597908593714237,-0.00015443199663423002,0.0029996237717568874,0.027866652,57.043552,Clouds
135002.768,0.0039378199726343155,-0.0029602120630443096,-0.0006057024002075195,0.0008327886462211609,0.0007908236002549529,-0.0008422313840128481,0.027326012,57.043552,Clouds
135002.798,0.00385386124253273,-0.0027657148893922567,8.07642936706543e-05,0.0010249910410493612,1.1479700333438814e-05,5.6393793784081936e-05,0.03282025,57.043552,Clouds
135002.827,0.003954919055104256,-0.004413279239088297,-7.212162017822266e-05,0.001007414422929287,-0.00024949113139882684,-0.00013690220657736063,0.030383615,57.043552,Clouds
135002.857,0.0046382565051317215,-0.0034254714846611023,-0.0006062984466552734,0.002173192799091339,-0.0005549845518544316,0.0008392872987315059,0.028410807,57.043552,Clouds
135002.887,0.004253113642334938,-0.002616517711430788,0.00012576580047607422,-0.0015314373886212707,0.003489046124741435,0.0019568356219679117,0.03359171,57.043552,Clouds
135002.917,0.003367604687809944,-0.002929067239165306,-0.00025588274002075195,0.001604985911399126,0.0021650069393217564,-0.0006565082585439086,0.032113466,57.043552,Clouds
135002.947,0.003474397584795952,-0.0030000265687704086,0.0007510781288146973,0.0018352719489485025,-0.00029427677509374917,-0.0006884954636916518,0.030154474,57.043552,Clouds
135002.977,0.003734249621629715,-0.0034589041024446487,-0.00014930963516235352,0.001837998628616333,0.00022619133233092725,-0.000697250128723681,0.029815085,57.043552,Clouds
135003.006,0.0037169847637414932,-0.0034012666437774897,-0.0002866983413696289,-0.0007775542326271534,0.0004050136194564402,0.00011149130295962095,0.028234651,57.043552,Clouds
135003.036,0.004060140810906887,-0.0029966847505420446,-0.0009124279022216797,0.0003330849576741457,-0.0005805124528706074,0.001279026037082076,0.024633797,57.043552,Clouds
135003.066,0.003487667068839073,-0.0030668973922729492,-0.0008056163787841797,0.0029555216897279024,0.0012377847451716661,-0.0001906937686726451,0.023439534,57.043552,Clouds
135003.095,0.003886801190674305,-0.002673084381967783,-0.0006837844848632812,-0.0012796357041224837,-0.00012909204815514386,-0.001421118970029056,0.041918,57.043552,Clouds
135003.126,0.004268377088010311,-0.003289658110588789,-0.0011416077613830566,0.0004899445921182632,-0.0006663922686129808,0.0016573818866163492,0.041390773,57.043552,Clouds
135003.156,0.004377251490950584,-0.0028751902282238007,0.00046050548553466797,-0.0011036584619432688,0.0013064398663118482,0.0013954899040982127,0.03986186,57.043552,Clouds
135003.186,0.0032968828454613686,-0.0029519873205572367,0.00035393238067626953,0.0002454291097819805,-0.003441867884248495,0.0017053920309990644,0.03792919,57.043552,Clouds
135003.215,0.004083133302628994,-0.002358665456995368,-0.00016504526138305664,-0.00028876843862235546,-0.0004603479173965752,7.632712367922068e-05,0.036092415,57.043552,Clouds
135003.245,0.004326491616666317,-0.0032793679274618626,-0.0008976459503173828,0.002933227689936757,0.001687359530478716,0.0009364266879856586,0.0336664,57.043552,Clouds
135003.274,0.003801729530096054,-0.0024463545996695757,-0.0009130239486694336,-0.0014166816836223006,0.0006868115160614252,4.227412864565849e-05,0.0330466,57.043552,Clouds
135003.305,0.003859962336719036,-0.0025472145061939955,-5.8770179748535156e-05,0.0023128394968807697,0.0013679751427844167,0.0017697415314614773,0.03244724,57.043552,Clouds
135003.335,0.003757050260901451,-0.0031526549719274044,0.0002002716064453125,0.0011837119236588478,-0.0015545831993222237,-0.00039519788697361946,0.031734418,57.043552,Clouds
135003.365,0.0037955204024910927,-0.002703150501474738,0.0003072023391723633,-0.00022992142476141453,0.0014961672713980079,-0.0016853936249390244,0.03369243,57.043552,Clouds
135003.394,0.0041993046179413795,-0.003203947562724352,0.0003680586814880371,-0.00019234884530305862,-0.0008762418874539435,0.0022002451587468386,0.029582135,57.043552,Clouds
135003.424,0.004132409580051899,-0.0029840050265192986,-7.468461990356445e-05,0.002133810892701149,0.0012277467176318169,-0.0014526084996759892,0.027922556,57.043552,Clouds
135003.454,0.004005606286227703,-0.0029893401078879833,-0.000319063663482666,-0.0014295391738414764,-0.002156623639166355,-0.0016506636748090386,0.02873247,57.043552,Clouds
135003.484,0.003697608597576618,-0.0025620360393077135,0.0003217458724975586,-0.0017853003228083253,-0.001456642639823258,-0.001474102376960218,0.02759033,57.043552,Clouds
135003.514,0.002738622948527336,-0.0019694308284670115,-0.00045669078826904297,0.0007418557070195675,-0.0011677019065245986,-0.0003005581093020737,0.02647151,57.043552,Clouds
135003.543,0.0040403082966804504,-0.0025641685351729393,-1.4424324035644531e-05,-0.00043177511543035507,0.0015732537722215056,7.719907443970442e-05,0.025978979,57.043552,Clouds
135003.573,0.0037745172157883644,-0.002907990477979183,-2.956390380859375e-05,-0.00011795642785727978,-0.002172862645238638,0.0007685745949856937,0.024621405,57.043552,Clouds
135003.603,0.004127106629312038,-0.0029395176097750664,-0.00030422210693359375,-0.0005998485721647739,-0.000761227507609874,8.848635479807854e-05,0.027902283,57.043552,Clouds
135003.633,0.003687475807964802,-0.003162483684718609,-2.956390380859375e-05,0.004574303515255451,-0.0010339943692088127,-0.0002492160419933498,0.03790271,57.043552,Clouds
135003.663,0.003619261085987091,-0.002744629979133606,-0.00028896331787109375,-0.002141043543815613,-0.0012925200862810016,-0.0005432369071058929,0.053564854,57.043552,Clouds
135003.693,0.0038720443844795227,-0.003045116551220417,-0.0004724860191345215,0.0009493569377809763,0.001132187549956143,-0.00034964282531291246,0.051700022,57.043552,Clouds
135003.722,0.003646068274974823,-0.0031953975558280945,0.0003515481948852539,0.001497678691521287,-0.0026957811787724495,-0.00020033580949530005,0.048141666,57.043552,Clouds
135003.752,0.0037150615826249123,-0.002313346602022648,-0.0010066032409667969,-0.003479281673207879,-0.0015143321361392736,-0.00017774914158508182,0.045033343,57.043552,Clouds
135003.782,0.003715377300977707,-0.00242121540941298,-0.0006250739097595215,-0.00014787097461521626,-0.0016046275850385427,-0.0015068142674863338,0.041206766,57.043552,Clouds
135003.812,0.00379854254424572,-0.002620052546262741,-0.0009914636611938477,-0.0016753915697336197,-0.001781274564564228,-0.00047177751548588276,0.040974513,57.043552,Clouds
135003.842,0.004188028164207935,-0.0029779886826872826,-0.00010675191879272461,0.0018895764369517565,0.0005984144518151879,0.0008486983133479953,0.03796458,57.043552,Clouds
135003.871,0.0037921201437711716,-0.0029001927468925714,-0.0004271864891052246,-0.0007876986637711525,0.0002759972703643143,0.0007850636029615998,0.036428582,57.043552,Clouds
135003.901,0.0036320649087429047,-0.003031312022358179,-0.0005952119827270508,-0.0005687570665031672,0.000845183152705431,-0.0009782331762835383,0.035824668,57.043552,Clouds
135003.931,0.0032642828300595284,-0.0031772777438163757,-0.00018340349197387695,0.00012157438322901726,-0.0007067481055855751,0.0019268819596618414,0.034525543,57.043552,Clouds
135003.961,0.0041722748428583145,-0.0033239705953747034,-0.00018358230590820312,-0.003337939502671361,-0.0009263979736715555,0.002242595423012972,0.033853214,57.043552,Clouds
135003.991,0.00440467894077301,-0.003077219007536769,-0.0004280209541320801,-0.0021727527491748333,-0.0015712728491052985,0.00024048073100857437,0.03209139,57.043552,Clouds
135004.021,0.0037623271346092224,-0.0026150536723434925,-0.00026023387908935547,-0.0019466083031147718,8.8256667368114e-05,-0.0007118850480765104,0.031021837,57.043552,Clouds
135004.050,0.003094240091741085,-0.0028432405088096857,-0.0005351901054382324,0.000771727878600359,0.0010187611915171146,0.0018644656520336866,0.029496351,57.043552,Clouds
135004.080,0.0036226939409971237,-0.002741011790931225,-0.0014199614524841309,0.00012109079398214817,-0.0002848630538210273,-0.0014758413890376687,0.037068103,57.043552,Clouds
135004.110,0.0026249391958117485,-0.0028880720492452383,0.0017538666725158691,0.0018643559888005257,-0.0016988980351015925,0.0022653057239949703,0.036646977,57.043552,Clouds
135004.139,0.0034240353852510452,-0.0013081112410873175,-0.00337296724319458,0.000694591086357832,0.0004963855026289821,0.0003570773405954242,0.032209903,57.043552,Clouds
135004.172,0.004129509441554546,-0.0024603677447885275,-0.0003058910369873047,0.0007752950768917799,-0.00035706505877897143,-0.0007358777802437544,0.030342992,57.043552,Clouds
135004.199,0.003013896755874157,-0.0029069960583001375,-0.00236588716506958,-0.0029463048558682203,0.0012160255573689938,-0.0008253709529526532,0.03025413,57.043552,Clouds
135004.229,0.003191269002854824,-0.0013623724225908518,0.0027303099632263184,0.00037937634624540806,-0.0012118612648919225,0.0007060584612190723,0.027775152,57.043552,Clouds
135004.259,0.004865976981818676,-0.0009953849948942661,-0.0021064281463623047,-0.0001082196831703186,0.001016927300952375,0.0009073403780348599,0.027594725,57.043552,Clouds
135004.289,0.0030994918197393417,-0.0035244692116975784,-0.00123673677444458,0.0012795894872397184,0.0010552876628935337,-0.0011456649517640471,0.14817767,57.043552,Clouds
135004.319,0.002167605794966221,-0.003919280134141445,0.0004569888114929199,0.0005535162054002285,0.0019231268670409918,0.0029546068981289864,0.15440597,57.043552,Clouds
135004.348,0.003850695677101612,-0.0022310332860797644,0.00036513805389404297,0.00036900187842547894,0.0024528733920305967,-0.0017692595720291138,0.1841807,57.043552,Clouds
135004.378,0.003853496164083481,-0.001965567469596863,-0.001206517219543457,-0.003489463124424219,0.00039140411536209285,-0.0010088945273309946,0.17338406,57.043552,Clouds
135004.408,0.003147585317492485,-0.0032267665956169367,-0.00029093027114868164,-0.001505622873082757,0.0011261176550760865,0.0006697781500406563,0.16475204,57.043552,Clouds
135004.438,0.00305111613124609,-0.0031061561312526464,0.0008685588836669922,-0.00044255517423152924,-0.00015542468463536352,-0.0030048610642552376,0.14038035,57.043552,Clouds
135004.468,0.0044291261583566666,-0.0025773511733859777,0.0002276897430419922,0.0015337567310780287,0.0020017579663544893,-0.0009324450511485338,0.12748727,57.043552,Clouds
135004.498,0.0034703947603702545,-0.00279275793582201,-0.0010693073272705078,-0.0045181866735219955,0.0009133301209658384,-0.0008279535104520619,0.11570147,57.043552,Clouds
135004.527,0.0023334333673119545,-0.0022619639057666063,-0.0001385807991027832,-0.0012510246597230434,0.0010855718282982707,-0.0007740363944321871,0.0942511,57.043552,Clouds
135004.557,0.002912263385951519,-0.0016275059897452593,-0.005387783050537109,0.0028914636932313442,0.0010919985361397266,-0.000741979107260704,0.08665849,57.043552,Clouds
135004.587,0.0048405323177576065,-0.002792367246001959,-0.00035256147384643555,-0.0004372734110802412,0.0008963975706137717,-0.00148288463242352,0.07246627,57.043552,Clouds
135004.617,0.0029876288026571274,-0.002387612359598279,-0.00012379884719848633,-0.000891656382009387,-0.0002587040944490582,-0.001831227564252913,0.06526491,57.043552,Clouds
135004.647,0.003207569941878319,-0.0027113500982522964,0.0001659989356994629,0.0030161552131175995,0.001809432520531118,-0.0002698118332773447,0.0611769,57.043552,Clouds
135004.677,0.0034699467942118645,-0.002785487798973918,-0.0009633898735046387,-0.002276344457641244,0.00014521577395498753,-0.0017845567781478167,0.054766893,57.043552,Clouds
135004.706,0.0023852260783314705,-0.0029163858853280544,-0.00018513202667236328,-0.0026459251530468464,0.0005450123571790755,-0.0007414186256937683,0.052071325,57.043552,Clouds
135004.736,0.00263071246445179,-0.002596421167254448,-0.000872194766998291,-0.0031389612704515457,-0.00035453488817438483,-0.004076934885233641,0.044720348,57.043552,Clouds
135004.766,0.002909056842327118,-0.0016397710423916578,-4.83393669128418e-05,-0.0009656657930463552,-0.000148462422657758,0.0008527821628376842,0.041325055,57.043552,Clouds
135004.796,0.003031974658370018,-0.0025411113165318966,0.0003024935722351074,-0.0008880698587745428,8.884350245352834e-05,0.0026136981323361397,0.037842438,57.043552,Clouds
135004.826,0.001973625272512436,-0.00253317691385746,2.753734588623047e-05,0.0013014217838644981,-0.0017262442270293832,-0.00024239777121692896,0.03294827,57.043552,Clouds
135004.856,0.003131040371954441,-0.0033006409648805857,-0.00046074390411376953,-0.0002307230606675148,0.0019892158452421427,0.0016948929987847805,0.031091169,57.043552,Clouds
135004.885,0.003176937811076641,-0.001968791475519538,-4.9054622650146484e-05,0.0007594802882522345,0.00023898168001323938,0.0016844675410538912,0.07175425,57.043552,Clouds
135004.915,0.001997625455260277,-0.00362190930172801,-0.00020188093185424805,0.0021955606061965227,-0.00017126707825809717,0.0018439657287672162,0.06710742,57.043552,Clouds
135004.945,0.004490118473768234,-0.0018338961526751518,-0.0005376935005187988,0.0022595811169594526,-0.002372224349528551,-0.00044736877316609025,0.06254669,57.043552,Clouds
135004.975,0.004605545662343502,-0.0017139515839517117,-0.0005985498428344727,-0.001309144077822566,-0.002019935753196478,0.0006609169067814946,0.054116033,57.043552,Clouds
135005.005,0.002597789280116558,-0.00272736931219697,-0.0008581876754760742,0.001686235424131155,0.0031019062735140324,0.00041470275027677417,0.049635272,57.043552,Clouds
135005.035,0.002697722055017948,-0.0016931737773120403,0.0006522536277770996,0.0007812024559825659,-0.00024492631200701,0.0002883343258872628,0.04361273,57.043552,Clouds
135005.064,0.0035734185948967934,-0.0018962458707392216,-0.0011790990829467773,-0.00024106400087475777,-0.0013788018841296434,-4.272384103387594e-06,0.043036338,57.043552,Clouds
135005.094,0.004794352687895298,-0.0026864304672926664,-0.001286149024963379,-0.0027187548112124205,-0.0014957047533243895,0.0018166899681091309,0.065310754,57.043552,Clouds
135005.124,0.002178679220378399,-0.0026124033611267805,-0.0003707408905029297,-0.0013459209585562348,0.0011542225256562233,0.0007219737744890153,0.0621806,57.043552,Clouds
135005.154,0.0024578971788287163,-0.002714519388973713,-0.00029456615447998047,-0.0022288039326667786,0.0007236504461616278,0.0020371077116578817,0.06072178,57.043552,Clouds
135005.184,0.005320458672940731,-0.002429550513625145,-0.00040149688720703125,-0.0017576420214027166,-0.0021841833367943764,0.0028897670563310385,0.05454821,57.043552,Clouds
135005.213,0.0027169082313776016,-0.002472462598234415,-0.0003254413604736328,-0.0013308306224644184,-0.0015635329764336348,-0.0008477418450638652,0.049928144,57.043552,Clouds
135005.243,0.002023252658545971,-0.003205743385478854,-0.000523984432220459,-0.0006807041354477406,-0.001248544780537486,0.00012893785606138408,0.048859134,57.043552,Clouds
135005.273,0.0027832118794322014,-0.002314148936420679,0.00019299983978271484,6.62636011838913e-05,-0.0005582645535469055,-9.766523726284504e-05,0.043294907,57.043552,Clouds
135005.303,0.00390886515378952,-0.0012442441657185555,-0.0004476308822631836,0.00023811566643416882,-0.001496834447607398,0.00018688858835957944,0.041763436,57.043552,Clouds
135005.333,0.0027370983734726906,-0.0026138972025364637,-0.00026428699493408203,-0.0028090905398130417,-0.0007757451967336237,-0.002142267068848014,0.03755423,57.043552,Clouds
135005.363,0.0031061209738254547,-0.003115558298304677,-0.0004933476448059082,0.002038021106272936,-0.000768910045735538,0.002071759896352887,0.036831785,57.043552,Clouds
135005.393,0.0036668870598077774,-0.0021194119472056627,0.00010162591934204102,0.0018596649169921875,-0.002785470336675644,0.0018792366608977318,0.036640126,57.043552,Clouds
135005.422,0.0028737401589751244,-0.0027898214757442474,0.0004831552505493164,-0.0003255791962146759,0.00023119755496736616,0.0008713841671124101,0.03235597,57.043552,Clouds
135005.452,0.0022316062822937965,-0.0023019383661448956,2.5033950805664062e-05,0.0003598479088395834,0.0005536946118809283,-0.0009212329750880599,0.06686677,57.043552,Clouds
135005.482,0.0036692172288894653,-0.002327958820387721,0.0008793473243713379,0.001541618024930358,-0.0007356497808359563,-0.00046142161590978503,0.08058575,57.043552,Clouds
135005.512,0.003931798040866852,-0.0027834118809551,-0.0004941821098327637,0.002218319568783045,0.001979788765311241,0.0029273787513375282,0.07175884,57.043552,Clouds
135005.542,0.002487274818122387,-0.0020457739010453224,-0.0009367465972900391,-0.0014475953066721559,0.0016048593679443002,-0.0006574025610461831,0.06667623,57.043552,Clouds
135005.571,0.0030089635401964188,-0.0018723751418292522,9.357929229736328e-06,-0.0034796984400600195,0.0002924516156781465,-0.0014302136842161417,0.05576681,57.043552,Clouds
135005.601,0.0034977812319993973,-0.0020438311621546745,0.00032961368560791016,-0.0007725858595222235,-0.00039609847590327263,-0.0006375621305778623,0.051011216,57.043552,Clouds
135005.631,0.002938433550298214,-0.0025750615168362856,0.000436246395111084,-0.002341323532164097,0.0006541655166074634,-0.0012757438234984875,0.04833026,57.043552,Clouds
135005.661,0.002858169376850128,-0.0016914773732423782,0.0007415413856506348,-0.0008843205869197845,0.0017179257702082396,0.00038209924241527915,0.041317333,57.043552,Clouds
135005.691,0.0030852491036057472,-0.0015800478868186474,0.00045174360275268555,-3.692507743835449e-05,-0.0001713781530270353,0.0028594895265996456,0.039048456,57.043552,Clouds
135005.721,0.003475833684206009,-0.0025766012258827686,0.0011074542999267578,0.00018308195285499096,0.003284828271716833,0.001044306787662208,0.03445125,57.043552,Clouds
135005.750,0.002066751942038536,-0.002505253767594695,0.002129852771759033,-0.004936050623655319,0.0003566768136806786,-0.001654006657190621,0.03238716,57.043552,Clouds
135005.780,0.0024194130674004555,-0.0008297467138618231,0.0030760765075683594,0.0015923022292554379,0.00039043655851855874,-0.001268286257982254,0.030602716,57.043552,Clouds
135005.810,0.0030244849622249603,-0.0024483697488904,0.0005123019218444824,-0.00018715695478022099,0.0021046032197773457,-0.002352344337850809,0.028992537,57.043552,Clouds
135005.840,0.0034664925187826157,-0.0029672272503376007,-0.0009372234344482422,0.0025807328056544065,0.0010527099948376417,-0.0008140489808283746,0.029614592,57.043552,Clouds
135005.870,0.0028282655403017998,-0.001346450299024582,0.0002529025077819824,-0.003243162762373686,0.0016537327319383621,-7.732422091066837e-06,0.040498454,57.043552,Clouds
135005.900,0.003165682777762413,-0.001825827406719327,-0.0008001327514648438,0.0031227553263306618,0.0018860041163861752,0.0012892972445115447,0.037399516,57.043552,Clouds
135005.929,0.0029205111786723137,-0.0018362326081842184,-0.00022035837173461914,-0.00014762906357645988,-0.0026103046257048845,-0.0018704106332734227,0.03708274,57.043552,Clouds
135005.959,0.003079960122704506,-0.0027905486058443785,-0.0008765459060668945,0.0025775355752557516,0.002340284176170826,0.0003103541675955057,0.03338889,57.043552,Clouds
135005.989,0.0029775304719805717,-0.0019922528881579638,0.0008019804954528809,0.0014124324079602957,-3.3384800190106034e-05,-0.0014039641246199608,0.031763926,57.043552,Clouds
135006.019,0.002840425819158554,-0.0018429902847856283,-0.0010289549827575684,-0.00033505051396787167,-0.00013357029820326716,0.0007363883778452873,0.02793568,57.043552,Clouds
135006.049,0.002687630243599415,-0.0018976475112140179,-0.0002200603485107422,-0.0009695729240775108,-0.0012124847853556275,0.0007908024126663804,0.026681202,57.043552,Clouds
135006.078,0.003872144967317581,-0.002055614022538066,-0.0008302927017211914,-0.00101398304104805,-0.0017711978871375322,0.001631774939596653,0.033992495,57.043552,Clouds
135006.108,0.00280695129185915,-0.0023470649030059576,-0.0010439753532409668,-0.0006893591489642859,0.0015255460748448968,-9.623181540518999e-05,0.029413156,57.043552,Clouds
135006.138,0.0018030069768428802,-0.0026830013375729322,0.00011551380157470703,0.000223896699026227,0.002273166785016656,-0.0002185022458434105,0.028797284,57.043552,Clouds
135006.168,0.0034481920301914215,-0.002409408800303936,-0.00046437978744506836,0.001199610298499465,0.0011163156013935804,0.0020585276652127504,0.025410235,57.043552,Clouds
135006.198,0.003233829513192177,-0.001921673072502017,-0.0004949569702148438,0.004721987992525101,0.0012312323087826371,0.003900209441781044,0.02442634,57.043552,Clouds
135006.228,0.0029818257316946983,-0.0028994774911552668,-0.00035750865936279297,-0.0010761222802102566,0.0005971947102807462,-0.004999951459467411,0.024181888,57.043552,Clouds
135006.258,0.003011763095855713,-0.0016181454993784428,0.000512242317199707,-0.0024961342569440603,-0.0008330055279657245,-0.0025308558251708746,0.025463453,57.043552,Clouds
135006.288,0.002613704651594162,-0.002127820160239935,-0.0008612871170043945,0.0012267285492271185,0.0005708546377718449,0.0035221977159380913,0.031503547,57.043552,Clouds
135006.317,0.0031317677348852158,-0.0026446369010955095,-0.0003883242607116699,0.000460929237306118,-0.00041372617124579847,-0.00032479886431246996,0.041230887,57.043552,Clouds
135006.347,0.0034347502514719963,-0.0017171495128422976,-0.0019295811653137207,-0.0001403740607202053,-0.0011229799129068851,-0.0004614773206412792,0.03839153,57.043552,Clouds
135006.377,0.0025788219645619392,-0.0025315505918115377,-0.0014418363571166992,0.0025381266605108976,0.00014882493996992707,-0.0015411966014653444,0.037235837,57.043552,Clouds
135006.407,0.002451285719871521,-0.0026579508557915688,0.0023268461227416992,-0.001120327739045024,0.0004625805886462331,-0.0020852203015238047,0.036688644,57.043552,Clouds
135006.437,0.003817879594862461,-0.001503456849604845,0.00023615360260009766,-0.00021797418594360352,-0.0006807067547924817,0.0009261193918064237,0.052873854,57.043552,Clouds
135006.466,0.0037429016083478928,-0.001659126253798604,-0.0008621811866760254,-0.0009359116666018963,-0.0022728084586560726,-0.002116881310939789,0.046481684,57.043552,Clouds
135006.496,0.0018725497648119926,-0.0031002513132989407,0.000526130199432373,-0.00018806196749210358,0.0011236052960157394,-0.0025521162897348404,0.044764355,57.043552,Clouds
135006.526,0.0019023669883608818,-0.0018702917732298374,-0.002495288848876953,0.0021752668544650078,-0.0014054890489205718,0.0011555864475667477,0.04277255,57.043552,Clouds
135006.556,0.0040491558611392975,-0.002435534493997693,-0.0006338953971862793,0.004455935209989548,-0.0008531329804100096,0.0032028763089329004,0.042321302,57.043552,Clouds
135006.586,0.0033310484141111374,-0.0024457841645926237,0.002021193504333496,0.001098443055525422,-0.000987174455076456,-0.0016895737498998642,0.044850618,57.043552,Clouds
135006.615,0.002663644030690193,-0.0033577769063413143,0.0002969503402709961,0.0030450408812612295,-0.0005422167014330626,0.0007476573227904737,0.04887091,57.043552,Clouds
135006.645,0.003183615393936634,-0.0020304014906287193,-0.0012289881706237793,-6.60535879433155e-05,-0.0012784081045538187,0.000991154694929719,0.04786885,57.043552,Clouds
135006.675,0.004264834336936474,-0.0025785404723137617,0.0009682774543762207,-0.0003512338735163212,-0.0011168632190674543,0.0005594036774709821,0.04627394,57.043552,Clouds
135006.705,0.0036009782925248146,-0.002786216326057911,-0.00104600191116333,0.0012661577202379704,0.0002780723152682185,-1.740804873406887e-05,0.05257519,57.043552,Clouds
135006.735,0.002584884874522686,-0.0025937724858522415,6.794929504394531e-06,-0.0011975995730608702,-0.0005470433970913291,-0.0005074581131339073,0.049385812,57.043552,Clouds
135006.765,0.0028209490701556206,-0.0017641163431107998,-8.404254913330078e-06,0.0007384363561868668,0.0008910736069083214,-0.0019301457796245813,0.043507904,57.043552,Clouds
135006.794,0.0030272742733359337,-0.002324785338714719,0.0008612871170043945,0.001389831304550171,-0.00033383670961484313,0.0008647089125588536,0.04103476,57.043552,Clouds
135006.824,0.0019433731213212013,-0.0026557696983218193,-0.0008935332298278809,-0.002123787999153137,0.001004400197416544,0.0008341880748048425,0.03762963,57.043552,Clouds
135006.854,0.0023854579776525497,-0.002089656190946698,0.0001742839813232422,0.001542146084830165,-1.9288374460302293e-05,0.0014882866526022553,0.032178197,57.043552,Clouds
135006.884,0.0036805374547839165,-0.0018556357827037573,0.0004489421844482422,-0.0003476387355476618,0.0006251414306461811,-0.0015689799329265952,0.029632652,57.043552,Clouds
135006.914,0.0035698236897587776,-0.00046717096120119095,-0.0006344914436340332,0.0008759945631027222,0.0012621099594980478,0.0009340934338979423,0.025322914,57.043552,Clouds
135006.944,0.0021170927211642265,-0.002935228403657675,-0.0010925531387329102,-0.0002322327345609665,-0.00046516009024344385,-0.0017587225884199142,0.023399813,57.043552,Clouds
135006.973,0.003035043366253376,-0.0020799986086785793,-9.000301361083984e-06,0.0013675878290086985,-0.00039159023435786366,-0.00014184601604938507,0.022439303,57.043552,Clouds
135007.003,0.004027383401989937,-0.002512846840545535,-0.0002835392951965332,0.002269913675263524,-0.0003447459894232452,0.00010872996062971652,0.020194955,57.043552,Clouds
135007.033,0.0020135510712862015,-0.0026227878406643867,-0.00043636560440063477,-0.001319749979302287,0.004037335515022278,0.00029008439742028713,0.019756367,57.043552,Clouds
135007.063,0.002001573331654072,-0.0020632720552384853,-0.0003294944763183594,-0.002334256423637271,-0.0015551414107903838,-0.0004474155721254647,0.021172449,57.043552,Clouds
135007.092,0.001811319962143898,-0.001851918874308467,0.00034183263778686523,-0.0007905508391559124,0.00013237437815405428,-0.0006913239485584199,0.027366914,57.043552,Clouds
135007.122,0.0020375261083245277,-0.0022798902355134487,0.000265657901763916,0.0006386321038007736,0.00081420480273664,-0.0012184793595224619,0.025923103,57.043552,Clouds
135007.152,0.003012453205883503,-0.0009128870442509651,-0.0006348490715026855,-0.0014549653278663754,0.001960397930815816,-0.0009101947071030736,0.022854293,57.043552,Clouds
135007.182,0.0033065443858504295,-0.0009410663042217493,-0.0003750324249267578,-0.0037871815729886293,0.0010775974951684475,0.002804716117680073,0.021453895,57.043552,Clouds
135007.212,0.0024445373564958572,-0.0018016505055129528,0.0006320476531982422,-0.001585358171723783,0.0020317703019827604,-0.0009764971910044551,0.07415854,57.043552,Clouds
135007.242,0.003371831960976124,-0.0019453042186796665,-0.0004209280014038086,-0.0001667211763560772,0.0018636713502928615,-0.00045025517465546727,0.07017098,57.043552,Clouds
135007.272,0.0029583629220724106,-0.002075487282127142,-0.0011230111122131348,-0.0005138209089636803,0.00021674568415619433,0.0040970188565552235,0.064439885,57.043552,Clouds
135007.301,0.003023644909262657,-0.0027934713289141655,0.000296175479888916,0.0019529862329363823,-0.0011584857711568475,-0.00011743971845135093,0.05536405,57.043552,Clouds
135007.331,0.0022567221894860268,-0.0020144577138125896,-0.000298917293548584,0.0021790785249322653,0.0010427203960716724,-0.0002348929992876947,0.05065889,57.043552,Clouds
135007.361,0.0034874100238084793,-0.0006500629242509604,0.0008148550987243652,0.001651108730584383,0.0011446462012827396,0.00011225792695768178,0.08516065,57.043552,Clouds
135007.391,0.0028710970655083656,-0.002386498963460326,-0.001153111457824707,-0.0011816115584224463,-0.001616835594177246,-0.0005821484373882413,0.081928,57.043552,Clouds
135007.421,0.0031827501952648163,-0.001190632814541459,-0.008019745349884033,-0.0019056351156905293,0.0017662574537098408,-0.0012397293467074633,0.12169665,57.043552,Clouds
135007.451,0.0029334332793951035,-0.0020682045724242926,5.227327346801758e-05,-0.0015622685896232724,0.0017661701422184706,-0.0009309812448918819,0.1235162,57.043552,Clouds
135007.480,0.0028378507122397423,-0.0027616219595074654,-2.384185791015625e-05,-0.0013322350569069386,0.0008489456959068775,0.0010107709094882011,0.12176826,57.043552,Clouds
135007.510,0.0021509071812033653,-0.002564510330557823,-0.0008783936500549316,0.001456509344279766,0.0030756548512727022,-0.0014420722145587206,0.11931016,57.043552,Clouds
135007.540,0.002801661379635334,-0.0012239792849868536,0.0035620927810668945,0.0005921535193920135,0.0022159914951771498,-0.001414813450537622,0.11092179,57.043552,Clouds
135007.570,0.003163030371069908,-0.01012955792248249,-0.013237595558166504,0.0006267006974667311,-0.0017539691179990768,-0.002968462649732828,0.10399496,57.043552,Clouds
135007.600,0.004011446610093117,-0.0028636713977903128,0.0038217902183532715,-0.0031024161726236343,-0.0006105481879785657,-0.0007608202868141234,0.09444855,57.043552,Clouds
135007.630,0.0028622448444366455,0.00044828513637185097,0.003165721893310547,0.0021920795552432537,-0.0003478495345916599,0.0007639850955456495,0.09116505,57.043552,Clouds
135007.659,0.002785087563097477,-0.001121430192142725,-0.00046569108963012695,-0.001667711534537375,7.86904274718836e-05,0.0008071299525909126,0.13900721,57.043552,Clouds
135007.689,0.0025215931236743927,-0.003950216807425022,-0.0011067390441894531,0.00025645922869443893,0.0008470434695482254,-0.0011236760765314102,0.12816592,57.043552,Clouds
135007.719,0.0029127253219485283,-0.0026888290885835886,0.0021588802337646484,0.0003084938507527113,-0.0015033695381134748,-0.000883322732988745,0.12416241,57.043552,Clouds
135007.749,0.004769247956573963,-0.0006974919233471155,0.00017529726028442383,-0.0011363474186509848,0.0017002327367663383,-0.0013213958591222763,0.116079345,57.043552,Clouds
135007.779,0.0023926179856061935,-0.0029074600897729397,-0.0005573630332946777,-0.0005939074326306581,-0.0001576654613018036,-0.000532207079231739,0.110211104,57.043552,Clouds
135007.809,0.0018043853342533112,-0.00356344785541296,0.0006328821182250977,0.00016310461796820164,0.00031559017952531576,-2.3204833269119263e-05,0.1065328,57.043552,Clouds
135007.838,0.004077116027474403,-0.001735063036903739,0.0012737512588500977,-0.0003395853564143181,0.0013288455083966255,1.3815122656524181e-05,0.100079924,57.043552,Clouds
135007.868,0.003642418421804905,-0.001474606106057763,-0.0013048648834228516,-0.0019986764527857304,-0.002996943425387144,-0.0004518193891271949,0.09488718,57.043552,Clouds
135007.898,0.0011824872344732285,-0.0030259666964411736,0.0006639957427978516,-0.00023842928931117058,-0.0002599871368147433,-0.0002990902867168188,0.08267848,57.043552,Clouds
135007.928,0.0019332608208060265,-0.0020580904092639685,0.0011674165725708008,0.0021301978267729282,0.0008732849964872003,0.0004011803539469838,0.080558166,57.043552,Clouds
135007.958,0.003457331098616123,-0.0007453854195773602,0.0008312463760375977,-0.0011959518305957317,0.0012349263997748494,0.0015986296348273754,0.08644456,57.043552,Clouds
135007.988,0.0025762179866433144,-0.002260466106235981,-0.0004354119300842285,-0.0026049218140542507,0.0034431656822562218,-0.0019245705334469676,0.083114065,57.043552,Clouds
135008.017,0.0016890652477741241,-0.0031830957159399986,0.0006783604621887207,-0.0016509912675246596,0.0015760583337396383,0.0007479708874598145,0.077743374,57.043552,Clouds
135008.047,0.0039540305733680725,-0.002543476177379489,-0.000985264778137207,0.001025952398777008,4.923225787933916e-05,0.0001689232885837555,0.06609814,57.043552,Clouds
135008.076,0.001759183593094349,-0.0017541907727718353,-0.00023734569549560547,-0.0012980408500880003,-0.002662025159224868,0.0005046320729888976,0.06533332,57.043552,Clouds
135008.106,0.0016905032098293304,-0.0021950057707726955,-0.0001760721206665039,0.0030877210665494204,-0.002380250720307231,0.0008561413269490004,0.07793899,57.043552,Clouds
135008.136,0.0031319065019488335,-0.002767450176179409,-0.0003591775894165039,-0.0009020483121275902,0.001006720238365233,0.0010481823701411486,0.0766256,57.043552,Clouds
135008.166,0.003976418636739254,-0.0022876556031405926,-0.0003591775894165039,-4.766881465911865e-05,-0.00021909576025791466,0.0020978404209017754,0.07694502,57.043552,Clouds
135008.196,0.002312629483640194,-0.002285693073645234,0.0002816319465637207,-0.004797432105988264,-0.0009398785186931491,-0.0016970501746982336,0.07413365,57.043552,Clouds
135008.226,0.0019127028062939644,-0.002454184228554368,0.00032705068588256836,0.0001655935775488615,1.895347668323666e-05,0.00024525183835066855,0.072549224,57.043552,Clouds