Timestamp,AccelX,AccelY,AccelZ,GyroX,GyroY,GyroZ,AudioLevel,LightLevel,Weather
135026.918,0.002692718058824539,-0.0006075669080018997,-0.00016921758651733398,-0.0016613389598205686,-0.0013056285679340363,-0.0003507688525132835,0.07554119,57.043552,Clouds
135026.948,0.0004860116168856621,-0.0023373374715447426,-1.3113021850585938e-06,0.00011144974268972874,0.0009619692573323846,-0.0007716384716331959,0.06868465,57.043552,Clouds
135026.978,0.0018930137157440186,-0.0017574396915733814,-0.0018020272254943848,-0.002210250124335289,0.00023756615701131523,0.0007029144908301532,0.057479095,57.043552,Clouds
135027.007,0.002603229135274887,-0.001661570742726326,-0.0003222227096557617,-0.0020855856128036976,0.00045183554175309837,5.365407560020685e-06,0.052808657,57.043552,Clouds
135027.038,0.0012178979814052582,-0.001560756005346775,-0.0014360547065734863,0.0018993113189935684,-0.0006034964462742209,-0.00026233395328745246,0.04785424,57.043552,Clouds
135027.067,-0.0008917814120650291,-0.0016571283340454102,0.001356363296508789,0.0013741243164986372,0.0008882273687049747,0.0005981268477626145,0.04039171,57.043552,Clouds
135027.097,0.0019504372030496597,-0.0008741565980017185,-0.0012223124504089355,0.0009090818930417299,-1.3126511476002634e-05,0.0006566574447788298,0.03659296,57.043552,Clouds
135027.127,0.002268310636281967,0.00022751279175281525,-0.0005513429641723633,-0.0016963783418759704,0.0012360506225377321,-0.0008326238603331149,0.031260777,57.043552,Clouds
135027.157,-0.00022851396352052689,-0.0014764652587473392,-4.8160552978515625e-05,0.0001093689352273941,-0.0006324158748611808,0.00027349498122930527,0.029768653,57.043552,Clouds
135027.187,-0.0007915906608104706,-0.0008963546715676785,-2.7418136596679688e-06,0.0010668144095689058,-0.0003641506773419678,-0.00032917666248977184,0.027943617,57.043552,Clouds
135027.217,0.002561110071837902,-0.00043692532926797867,0.0013399720191955566,0.002182195894420147,0.001127126975916326,-0.00013348221546038985,0.023815354,57.043552,Clouds
135027.246,0.0008079782128334045,-0.0006110416725277901,-0.001421809196472168,0.0012228807900100946,0.00030132842948660254,0.0029578320682048798,0.022817655,57.043552,Clouds
135027.276,-0.0003925170749425888,-0.0016889357939362526,0.00039392709732055664,-0.0013241423293948174,0.002015236532315612,0.001507874927483499,0.020576643,57.043552,Clouds
135027.306,0.0017730770632624626,-0.0007604393176734447,0.00013452768325805664,0.00039242347702383995,-0.00013263859727885574,0.0010240146657451987,0.019736785,57.043552,Clouds
135027.336,0.0020187944173812866,-0.0007083010859787464,0.0005162358283996582,-0.003555052215233445,0.0008127368637360632,0.0005455058417282999,0.018846817,57.043552,Clouds
135027.366,0.0016465811058878899,-0.0015711369924247265,-0.0011163949966430664,-0.0006905058398842812,-0.0004850654222536832,-0.0006317250663414598,0.016495043,57.043552,Clouds
135027.396,0.0008362391963601112,-0.0016526603139936924,0.0007908940315246582,-0.0015293392352759838,0.0014493505004793406,0.000443194032413885,0.015499855,57.043552,Clouds
135027.425,0.0018083993345499039,-0.0006137038581073284,0.0008819699287414551,0.0005781557410955429,0.002358807949349284,-0.0012401097919791937,0.021184517,57.043552,Clouds
135027.455,0.0020118048414587975,-0.001510989386588335,7.301568984985352e-05,0.0012995596043765545,0.001401012996211648,-0.002800749847665429,0.022524692,57.043552,Clouds
135027.485,0.0007287357002496719,-0.001469915732741356,-7.94529914855957e-05,-0.0008563748560845852,0.0009271224262192845,-0.00015269400319084525,0.021430315,57.043552,Clouds
135027.515,0.0004737218841910362,-0.0012779561802744865,-0.0012393593788146973,0.00045253592543303967,0.0011718745809048414,0.0008876261999830604,0.021013808,57.043552,Clouds
135027.544,0.0016803732141852379,-0.00045924121513962746,-0.0003393888473510742,0.0013670341577380896,0.0016916657332330942,0.0013523302040994167,0.020670768,57.043552,Clouds
135027.575,0.001516740769147873,-0.00046501681208610535,-0.00029343366622924805,0.0010925312526524067,-0.0017481106333434582,0.0018394241342321038,0.039255373,57.043552,Clouds
135027.605,0.00015928316861391068,-0.0014295433647930622,0.0005002021789550781,-0.0007764499168843031,-0.0003104752686340362,0.001879132236354053,0.03655436,57.043552,Clouds
135027.634,0.0009023090824484825,-0.0007944665849208832,-0.0007208585739135742,0.0007792743854224682,0.0028671156615018845,-0.0003683833056129515,0.033497453,57.043552,Clouds
135027.664,0.0026343585923314095,-0.0008261087350547314,-0.0011638998985290527,0.0037331378553062677,0.0009445712203159928,0.0003003563906531781,0.029495379,57.043552,Clouds
135027.694,0.0008867345750331879,-0.0013457355089485645,0.00020933151245117188,-0.0005615630652755499,0.0006886508781462908,0.0004129089938942343,0.027109124,57.043552,Clouds
135027.724,-0.0001497427001595497,-0.0004068119451403618,0.001185774803161621,0.0024229874834418297,0.0014089005999267101,0.0003405605675652623,0.0323361,57.043552,Clouds
135027.753,0.0007960312068462372,-0.0006363401189446449,-0.00014215707778930664,0.0019102985970675945,0.00037646107375621796,0.0010570569429546595,0.030481039,57.043552,Clouds
135027.783,0.0023909620940685272,-0.0006489409133791924,-0.0004932880401611328,-0.001272109686397016,-0.00011234031262574717,0.0014939273241907358,0.028004285,57.043552,Clouds
135027.813,0.00037249643355607986,-0.0015888060443103313,0.000712275505065918,0.0010078658815473318,0.0018386075971648097,-0.0017456242348998785,0.024760831,57.043552,Clouds
135027.843,0.0013054003939032555,-0.0009078159928321838,0.00010192394256591797,0.0014101557899266481,-0.0023357803001999855,0.0001036848989315331,0.02321869,57.043552,Clouds
135027.873,0.0020509101450443268,-0.00037510180845856667,-0.0006456375122070312,0.0016627137083560228,0.00043677454232238233,0.0015016644028946757,0.15720682,57.043552,Clouds
135027.902,0.00041488371789455414,-0.0005505401641130447,0.001261889934539795,0.0006580539047718048,-0.0009268991416320205,-0.001950269564986229,0.14348015,57.043552,Clouds
135027.932,0.0008569872006773949,-0.000895308330655098,-0.0006147623062133789,0.0016503906808793545,-0.0012433717492967844,-0.0013093813322484493,0.13278282,57.043552,Clouds
135027.962,0.0018714480102062225,-0.0006829774938523769,-0.0005385875701904297,0.0009345251601189375,-0.002811275888234377,0.0016079863999038935,0.109957136,57.043552,Clouds
135027.992,0.002348313108086586,-0.0009249858558177948,-0.0006000995635986328,-0.002380320569500327,0.003249953268095851,0.00040129816625267267,0.099642485,57.043552,Clouds
135028.022,0.00024463608860969543,-0.0015449915081262589,-5.424022674560547e-06,0.0017021715175360441,0.0013231639750301838,0.003221580758690834,0.09127337,57.043552,Clouds
135028.052,0.0003305533900856972,-0.00044965511187911034,-0.00044804811477661133,-0.0024069424252957106,-0.0006502371397800744,0.0016004996141418815,0.07692671,57.043552,Clouds
135028.081,0.0010086940601468086,-0.0012157759629189968,-0.0004636049270629883,-0.000668324064463377,4.944582178723067e-05,-0.002107092645019293,0.07212113,57.043552,Clouds
135028.111,0.0011925892904400826,-0.0012841466814279556,-0.00032633543014526367,6.412318907678127e-05,-0.001311823376454413,0.00047812319826334715,0.065343976,57.043552,Clouds
135028.141,-0.0001278230920433998,-0.0011631674133241177,-0.000525057315826416,0.00043408130295574665,0.0013765705516561866,0.0010796834249049425,0.059803814,57.043552,Clouds
135028.171,0.0002528280019760132,-0.00036454200744628906,0.00013065338134765625,0.00147908553481102,0.0009405507007613778,-0.0019952431321144104,0.055654,57.043552,Clouds
135028.201,0.0009233960881829262,-0.000454822089523077,-0.0006933212280273438,0.0004584814887493849,-0.0004277463012840599,-0.0029541647527366877,0.046768695,57.043552,Clouds
135028.230,0.0007818657904863358,-0.0016288128681480885,0.0008785128593444824,-0.0008289467077702284,-0.0006639966741204262,-0.0026213633827865124,0.043157924,57.043552,Clouds
135028.260,0.0016241231933236122,-0.0014732028357684612,-0.002249419689178467,-0.0019160410156473517,0.0007920202915556729,-0.00014558975817635655,0.038895838,57.043552,Clouds
135028.291,0.0010803434997797012,-0.0003440519794821739,0.002221047878265381,0.002174745313823223,-0.001356096938252449,-0.0009963237680494785,0.051865954,57.043552,Clouds
135028.320,-0.00039377622306346893,0.001049351878464222,0.00022214651107788086,0.0001892873551696539,0.0018129466334357858,-0.0020747012458741665,0.04837427,57.043552,Clouds
135028.350,0.0022347839549183846,-0.0018563191406428814,-0.002830028533935547,-0.0007714785169810057,0.0008390526636503637,-9.965075878426433e-05,0.043620475,57.043552,Clouds
135028.380,0.0014057224616408348,-0.000939616933465004,0.0007101893424987793,-0.0017103449208661914,-0.000868319533765316,-0.003997227177023888,0.04068773,57.043552,Clouds
135028.409,-0.0001421244814991951,-0.0007512080483138561,-0.001563429832458496,-0.0034605786204338074,0.0017462571850046515,0.0006099386955611408,0.037010957,57.043552,Clouds
135028.439,0.0011700484901666641,-0.0033067455515265465,-0.0026466846466064453,-0.0029757721349596977,-0.0016694219084456563,0.0016960917273536325,0.035562225,57.043552,Clouds
135028.469,0.0022942516952753067,-0.0003328239545226097,0.0005726218223571777,-0.0009316448122262955,9.043878526426852e-05,-0.0010046781972050667,0.032909982,57.043552,Clouds
135028.499,-0.00010829884558916092,-0.0009015398100018501,0.0009232759475708008,-0.0028951631393283606,0.0015438457485288382,0.0002270265540573746,0.03002266,57.043552,Clouds
135028.529,0.0003792988136410713,-0.0013013123534619808,-0.00015991926193237305,-0.002142515731975436,-0.001040863455273211,-0.0022388154175132513,0.029262742,57.043552,Clouds
135028.559,0.002578780986368656,-0.00032114889472723007,-0.00026684999465942383,-0.0011639287695288658,0.00019687748863361776,-0.00030782370595261455,0.028295547,57.043552,Clouds
135028.588,-0.0005324836820363998,-0.001016075722873211,0.0019456744194030762,0.0028322392608970404,-0.0007146140560507774,8.27019102871418e-05,0.027124532,57.043552,Clouds
135028.618,-0.0007334072142839432,-0.0008679698221385479,0.0014269351959228516,-0.0007126955315470695,-0.0014010851737111807,-0.0007722625159658492,0.033891242,57.043552,Clouds
135028.648,0.00327374879270792,-8.180085569620132e-05,-0.00145721435546875,-0.0009633637964725494,0.0005063786520622671,-0.0027456723619252443,0.04341514,57.043552,Clouds
135028.678,0.002431965433061123,-0.0007342980243265629,-0.0008774399757385254,-0.0012097214348614216,-0.00037534217699430883,-0.00041507015703246,0.046238404,57.043552,Clouds
135028.708,0.0007689185440540314,-0.00235914858058095,-0.002464473247528076,0.0022061634808778763,0.0006325481226667762,0.0023486551363021135,0.0412261,57.043552,Clouds
135028.738,-0.001517539843916893,-0.0004954761825501919,0.0009688138961791992,-0.0022623587865382433,-0.00023466740094590932,-0.0013387675862759352,0.03970761,57.043552,Clouds
135028.767,0.00015582051128149033,-0.000257125124335289,0.005973637104034424,0.003642172319814563,0.0021820080000907183,-0.001259473036043346,0.037814464,57.043552,Clouds
135028.797,0.00141995120793581,-0.0012512537650763988,-0.0023580193519592285,-0.0005630722735077143,0.0012253419263288379,0.0007506770198233426,0.044184178,57.043552,Clouds
135028.827,0.0021686917170882225,0.0007083714008331299,9.870529174804688e-05,0.0019415190909057856,0.00048464216524735093,-0.00011448399163782597,0.041417435,57.043552,Clouds
135028.857,0.0002800263464450836,-0.0022382931783795357,-0.0010002851486206055,-0.0006994579453021288,0.004317177925258875,0.0025702468119561672,0.037444074,57.043552,Clouds
135028.887,-0.0014149509370326996,-0.0012514134868979454,-0.0008936524391174316,-0.0019448442617431283,-3.488568472675979e-05,-0.0015805717557668686,0.067419484,57.043552,Clouds
135028.917,0.002178172580897808,-0.00024170894175767899,-0.0003440380096435547,-0.0006927989888936281,0.0006888197385706007,0.0011886907741427422,0.06424841,57.043552,Clouds
135028.947,0.002289724536240101,-6.64922408759594e-05,0.0009222626686096191,0.0008771510329097509,0.0019012379925698042,0.0005356696783564985,0.08392241,57.043552,Clouds
135028.976,-0.00037911999970674515,-0.0008188057690858841,0.00014394521713256836,0.0012441426515579224,1.2613163562491536e-05,0.0010348311625421047,0.07851888,57.043552,Clouds
135029.006,0.0010010860860347748,-0.001049076672643423,-0.00026851892471313477,-0.0008992503862828016,-0.0008753935690037906,0.0004930562572553754,0.06734188,57.043552,Clouds
135029.036,0.0014211628586053848,-0.0012057009153068066,0.0012576580047607422,0.0011529282201081514,-0.0008928109309636056,0.0004641845589503646,0.06180873,57.043552,Clouds
135029.066,0.0012246966361999512,-0.0003370940685272217,-0.00022274255752563477,0.0010324683971703053,-0.001702412380836904,-0.0007350093801505864,0.056888368,57.043552,Clouds
135029.095,-2.723652869462967e-05,-0.0019361129961907864,8.255243301391602e-05,3.952300176024437e-05,0.0007092325249686837,0.002032678807154298,0.050245345,57.043552,Clouds
135029.125,0.0007130363956093788,-0.0005010496824979782,0.0018221139907836914,0.0016004503704607487,0.00018096980056725442,0.0019738429691642523,0.047036994,57.043552,Clouds
135029.155,0.0034025628119707108,0.000345736276358366,-0.0001309514045715332,0.0011611059308052063,0.00013182334078010172,-0.0020921099931001663,0.059266303,57.043552,Clouds
135029.185,0.00013962294906377792,-0.002204418648034334,-0.002465486526489258,0.0027401011902838945,-0.0018642258364707232,0.0010722141014412045,0.056875393,57.043552,Clouds
135029.215,-0.00027834251523017883,-0.002174332272261381,0.00028121471405029297,-0.0019265416776761413,-0.0002635909477248788,8.860544767230749e-05,0.089732476,57.043552,Clouds
135029.245,0.0007633939385414124,-0.0001656259410083294,0.0013644099235534668,-0.0035803322680294514,0.0007244209991768003,-0.0009486674680374563,0.35794887,57.043552,Clouds
135029.274,0.001813126727938652,0.0005776612088084221,0.0017763972282409668,0.0013753159437328577,-9.421685535926372e-05,0.0002538592671044171,0.33784428,57.043552,Clouds
135029.304,0.0005809543654322624,-0.0015086331404745579,-0.0006039738655090332,-0.0018228073604404926,0.002226511249318719,-0.0020203660242259502,0.29638103,57.043552,Clouds
135029.334,0.000543719157576561,-0.0013641612604260445,-0.003411233425140381,-0.0028905877843499184,0.00026793614961206913,0.002291054930537939,0.27464068,57.043552,Clouds
135029.364,0.000882485881447792,-0.0004512486048042774,-0.002419114112854004,-0.0015353013295680285,-0.00043858500430360436,1.7463404219597578e-05,0.24999219,57.043552,Clouds
135029.393,1.6063451766967773e-05,-0.0006378325633704662,0.0018534660339355469,-0.0017198565183207393,-0.003592032240703702,-0.0034228397998958826,0.20535158,57.043552,Clouds
135029.424,-0.0003656698390841484,-0.0005624503828585148,7.510185241699219e-06,-0.0037548765540122986,0.0013199514942243695,0.00023005978437140584,0.18576695,57.043552,Clouds
135029.454,0.002394305542111397,-0.0007889643311500549,-0.0020526647567749023,-0.0047459956258535385,-0.0007904162048362195,-0.0003953431732952595,0.15094028,57.043552,Clouds
135029.483,0.001606140285730362,-0.0003029308281838894,-0.0007099509239196777,-0.0004910079296678305,0.0004518920904956758,0.0015924798790365458,0.13917536,57.043552,Clouds
135029.513,-0.00041508302092552185,0.00013075023889541626,0.0006939172744750977,-0.001281196833588183,-0.00010522271622903645,0.0005204366170801222,0.12698,57.043552,Clouds
135029.543,0.0011636251583695412,-0.0007664407603442669,0.00017499923706054688,-0.0013017295859754086,0.0005353016313165426,0.0016076976899057627,0.11539303,57.043552,Clouds
135029.573,0.0012055234983563423,-0.0008941125124692917,-0.0016866326332092285,0.00033533060923218727,-0.0011270679533481598,0.0005419101798906922,0.104847796,57.043552,Clouds
135029.602,0.0011376366019248962,-0.0015786197036504745,0.0004190802574157715,0.0001906687393784523,0.001649270998314023,0.001565827988088131,0.08596896,57.043552,Clouds
135029.632,-0.0006591342389583588,-0.0011982177384197712,0.0008615255355834961,0.0010255072265863419,-0.0002534997183829546,0.0007120989030227065,0.07730007,57.043552,Clouds
135029.662,-0.0011769821867346764,-0.0014401436783373356,0.00023603439331054688,0.0062514240853488445,-0.0013539261417463422,0.00023396540200337768,0.07166968,57.043552,Clouds
135029.692,0.0023744655773043633,-0.0013043992221355438,-0.001366257667541504,0.0022906651720404625,-0.0009635863825678825,0.00033361659734509885,0.060241565,57.043552,Clouds
135029.722,0.002145676873624325,-0.0006015044637024403,0.0004648566246032715,0.004722879733890295,0.0010101229418069124,-0.00020361744100227952,0.055403437,57.043552,Clouds
135029.752,-0.0003214990720152855,-0.0011016344651579857,0.0003579258918762207,-0.0007858178578317165,-0.0012860465794801712,-0.0018352072220295668,0.049242154,57.043552,Clouds
135029.782,-0.0007546888664364815,-0.0014963587746024132,0.00040394067764282227,0.0017501343972980976,-0.0017608687048777938,0.00016263430006802082,0.047506344,57.043552,Clouds
135029.811,0.0017878888174891472,-0.00016536377370357513,0.0005563497543334961,0.0013074451126158237,0.0008600816945545375,0.000782579358201474,0.04459205,57.043552,Clouds
135029.842,0.0024925749748945236,-0.0011352687142789364,0.0002663135528564453,-0.0010023433715105057,-0.0016256135422736406,-0.0002526455791667104,0.0405664,57.043552,Clouds
135029.871,0.002691160887479782,0.0024493057280778885,0.00046503543853759766,-0.004717436619102955,0.0023320866748690605,0.00012994412099942565,0.038134057,57.043552,Clouds
135029.901,-0.0011703148484230042,-0.00047341594472527504,0.0008314251899719238,-0.0013627740554511547,-0.0008666078792884946,-0.00014995504170656204,0.05171183,57.043552,Clouds
135029.931,-0.0006765266880393028,-0.002202071249485016,-0.0007708072662353516,0.0011930032633244991,-0.0002622627653181553,-0.000583166372962296,0.048715953,57.043552,Clouds
135029.960,0.0036049606278538704,4.780339077115059e-05,-0.0005720853805541992,0.0016566654667258263,-0.001447064452804625,0.002311820164322853,0.045592193,57.043552,Clouds
135029.990,0.0008792411535978317,-0.0006347666494548321,-0.0008311867713928223,0.0012624682858586311,-0.0014507672749459743,0.0006266997661441565,0.040027916,57.043552,Clouds
135030.020,-0.0015250472351908684,-0.001218664925545454,0.0008320808410644531,-0.0012793362839147449,-0.00274449260905385,-0.001705428585410118,0.03692593,57.043552,Clouds
135030.050,0.0006974069401621819,-0.001146208494901657,0.0013204216957092285,0.0009146528318524361,0.0003952443948946893,-0.0004308066563680768,0.031993534,57.043552,Clouds
135030.079,0.002291475422680378,0.00045529939234256744,0.0003135204315185547,0.0003350174520164728,0.002025498542934656,0.0011627635685727,0.030710123,57.043552,Clouds
135030.110,-0.00015775952488183975,-0.0012785745784640312,-0.0011056065559387207,-0.0008323460351675749,0.0017228579381480813,0.0004822863556910306,0.029047374,57.043552,Clouds
135030.139,-0.00029344577342271805,-0.0018465183675289154,0.0002371668815612793,-0.0016596503555774689,-0.00022913636348675936,-0.000418979674577713,0.027707579,57.043552,Clouds
135030.169,0.0025368696078658104,-0.0008023306727409363,-0.0005870461463928223,0.004893111996352673,-0.00033424122375436127,0.0007301894365809858,0.025334079,57.043552,Clouds
135030.199,0.001607217825949192,-0.00038364017382264137,-0.0012587308883666992,-0.00010642921552062035,0.0011423027608543634,-0.0015624527586624026,0.03254385,57.043552,Clouds
135030.229,-0.0009051747620105743,-0.0013443543575704098,0.0006179213523864746,-0.0007277526892721653,-0.0006769603351131082,-0.0016729806084185839,0.029769756,57.043552,Clouds
135030.259,0.0011262930929660797,-0.0010796021670103073,0.0004960894584655762,-5.119876004755497e-05,0.0001320630544796586,-0.0016392325051128864,0.028011288,57.043552,Clouds
135030.288,0.0021560480818152428,0.0002251025289297104,-0.0008620023727416992,-0.001035085180774331,-0.0016805828781798482,0.0012327691074460745,0.025027534,57.043552,Clouds
135030.319,-3.988388925790787e-05,-0.0006023193709552288,0.0014418363571166992,0.00044555868953466415,0.0012684124521911144,-0.0003940678434446454,0.02427716,57.043552,Clouds
135030.348,-0.0005063656717538834,-0.001639428548514843,-0.0001602768898010254,-0.0007977692876011133,0.000731053005438298,0.000343226216500625,0.021886243,57.043552,Clouds
135030.378,0.0011908365413546562,-0.00025079306215047836,-2.3305416107177734e-05,-0.0002804959658533335,0.002445249119773507,0.0007094068569131196,0.020479336,57.043552,Clouds
135030.408,0.001269313506782055,-0.0010252832435071468,-0.0008015036582946777,-0.0016080433269962668,0.00045890623005107045,0.0010554395848885179,0.019099923,57.043552,Clouds
135030.438,0.0005231397226452827,-0.0013914029113948345,-3.8504600524902344e-05,0.0013161730021238327,-0.00037075410364195704,0.0019311034120619297,0.0196936,57.043552,Clouds
135030.468,-0.00019274558871984482,-0.0011565363965928555,-0.000953972339630127,-0.0007302237208932638,-0.0008006596472114325,2.3610598873347044e-05,0.021740943,57.043552,Clouds
135030.497,0.0014443621039390564,-0.0008610780350863934,-6.902217864990234e-05,-0.0016931431600823998,-0.0027794744819402695,0.0010984581895172596,0.020231009,57.043552,Clouds
135030.527,0.0007114363834261894,-0.0009692818857729435,-0.00014513731002807617,-0.0027051507495343685,0.0010931461583822966,-1.057755434885621e-05,0.02424224,57.043552,Clouds
135030.557,-2.1762214601039886e-05,-0.0009459406137466431,-0.00028246641159057617,0.0011329352855682373,0.00028480717446655035,-0.0006363820284605026,0.023117112,57.043552,Clouds
135030.587,0.0010281382128596306,-0.000604547094553709,0.00048029422760009766,-0.003547194879502058,0.0030976354610174894,0.002973069902509451,0.020388769,57.043552,Clouds
135030.617,0.0019273310899734497,-0.000764122698456049,0.0006325840950012207,0.002148941159248352,0.0008600950823165476,-0.0007368525839410722,0.019691918,57.043552,Clouds
135030.647,0.0002746172249317169,-0.0004939674399793148,-6.943941116333008e-05,0.00038719666190445423,0.0023541594855487347,-0.0027295651379972696,0.017345084,57.043552,Clouds
135030.677,-0.0004272032529115677,-0.00081593357026577,2.1636486053466797e-05,-0.00022631161846220493,0.0031280771363526583,0.0007571160676889122,0.022121517,57.043552,Clouds
135030.706,0.0009992364794015884,-0.00139241898432374,-0.0002529025077819824,0.0002425613347440958,-0.002545062219724059,-0.0003765212604776025,0.02231118,57.043552,Clouds
135030.736,0.001357516273856163,-0.0006219963543117046,-0.0005887746810913086,0.0014794771559536457,0.0014935792423784733,-0.0015412869397550821,0.020621361,57.043552,Clouds
135030.766,0.0005533453077077866,-0.0008023390546441078,-0.0013367533683776855,0.002225647447630763,0.0019865259528160095,0.0011191298253834248,0.020167982,57.043552,Clouds
135030.796,0.00045502185821533203,-0.00039771711453795433,-0.0005739331245422363,0.0029124708380550146,-0.0025170063599944115,0.0011997302062809467,0.018374553,57.043552,Clouds
135030.826,0.0010688621550798416,-0.000800207257270813,2.104043960571289e-05,-8.103973232209682e-05,-0.0007946324767544866,0.00089383649174124,0.018405845,57.043552,Clouds
135030.856,0.0002550315111875534,-0.0005374709144234657,-0.0005586147308349609,0.0003162403590977192,-0.0010943692177534103,-0.0016498947516083717,0.018206092,57.043552,Clouds
135030.885,0.001451883465051651,-0.0005237031728029251,6.717443466186523e-05,-0.0008943390566855669,-0.002193220891058445,-0.001856330782175064,0.016573058,57.043552,Clouds
135030.915,0.0012613078579306602,-0.0009184521622955799,-0.0004666447639465332,0.0013434914872050285,0.00039829217712394893,-0.0011953511275351048,0.0162915,57.043552,Clouds
135030.945,0.0005327537655830383,0.00035541877150535583,0.000280916690826416,0.0010124021209776402,6.768584717065096e-05,-0.00044725160114467144,0.020535238,57.043552,Clouds
135030.974,0.00040820706635713577,-8.271541446447372e-05,0.0005251169204711914,0.0027847476303577423,-0.001251189736649394,-0.00037874444387853146,0.019046662,57.043552,Clouds
135031.004,0.0005086949095129967,-0.0013054441660642624,-3.9577484130859375e-05,-0.0001704853493720293,-0.0021585351787507534,-0.0008150315843522549,0.018777046,57.043552,Clouds
135031.034,0.001802654005587101,-0.0004250975325703621,-0.000344693660736084,0.0013582045212388039,-0.001642016926780343,0.0010221103439107537,0.016937578,57.043552,Clouds
135031.064,0.0006389645859599113,-0.0008820854127407074,0.0009062886238098145,0.002738505369052291,3.234803443774581e-05,-0.000902859028428793,0.018724436,57.043552,Clouds
135031.094,-0.0008533094078302383,-0.0011291769333183765,-0.00019222497940063477,0.002108189044520259,-8.121694554574788e-05,-0.00015397457173094153,0.018309249,57.043552,Clouds
135031.123,0.00019046664237976074,-0.001307233702391386,0.0007845759391784668,0.0011934384237974882,-0.0003315358771942556,-0.00013533694436773658,0.017301299,57.043552,Clouds
135031.153,0.000828765332698822,-0.0007643280550837517,-0.0009244084358215332,-0.000670070294290781,-0.0029405527748167515,0.0029088370501995087,0.016595092,57.043552,Clouds
135031.183,5.4253265261650085e-05,-0.0009844200685620308,9.810924530029297e-05,0.001029120059683919,0.0001368381199426949,-0.0006522724870592356,0.022457432,57.043552,Clouds
135031.213,-3.8917176425457e-05,-0.0012069926597177982,-0.0004667043685913086,-0.0024173238780349493,-0.0002449127787258476,0.0009820727864280343,0.02156137,57.043552,Clouds
135031.243,0.0006027081981301308,-0.00025443127378821373,-0.0006955862045288086,0.0006713403854519129,-0.0003203558153472841,-0.0007274668896570802,0.02018344,57.043552,Clouds
135031.273,0.0007317783311009407,-0.0007005841471254826,-0.00014644861221313477,-0.0009857635013759136,-0.0006984120700508356,-0.0019550397992134094,0.019029742,57.043552,Clouds
135031.303,0.0009117880836129189,-2.5189947336912155e-05,5.1856040954589844e-05,0.0031513485591858625,-0.00141154695302248,-0.00046170089626684785,0.01836838,57.043552,Clouds
135031.332,0.0008858470246195793,-0.0010615140199661255,-3.993511199951172e-05,0.0013339724391698837,0.0007308535277843475,0.002513001672923565,0.03615538,57.043552,Clouds
135031.363,0.001284286379814148,-0.0008882712572813034,-0.0006960034370422363,0.00011696829460561275,0.0019323250744491816,-0.0009880732977762818,0.034973815,57.043552,Clouds
135031.392,9.886268526315689e-05,-0.0009416509419679642,-0.0001925826072692871,0.001599682029336691,-0.00018458915292285383,-0.0011188325006514788,0.034279563,57.043552,Clouds
135031.422,0.0009436672553420067,-0.0012087197974324226,0.0011348724365234375,-0.0006140456534922123,-0.0005884735146537423,-0.0011726133525371552,0.031474773,57.043552,Clouds
135031.452,0.0013740584254264832,-6.409129127860069e-05,-0.0005131363868713379,-0.001974628772586584,0.0006272334139794111,-0.0015636819880455732,0.030493408,57.043552,Clouds
135031.482,0.00048620346933603287,-0.0001508663408458233,-0.0005893707275390625,-0.0010405579814687371,-0.00012431322829797864,-0.002296273596584797,0.028957305,57.043552,Clouds
135031.511,0.00034898705780506134,-2.2007618099451065e-05,0.00011235475540161133,-0.0008865669369697571,0.00017328039393760264,0.00011408550199121237,0.027150417,57.043552,Clouds
135031.541,0.0008546179160475731,1.639965921640396e-05,-0.0015051960945129395,0.002207605168223381,0.0010058621410280466,-0.003896067850291729,0.0321943,57.043552,Clouds
135031.571,0.0012954259291291237,-0.001322315540164709,6.628036499023438e-05,-0.0007667734753340483,-0.0005616205744445324,0.000376120995497331,0.02912377,57.043552,Clouds
135031.600,0.00022725481539964676,-0.0012799100950360298,0.0002803802490234375,0.0018587312661111355,-0.000428148137871176,0.00033622002229094505,0.028169531,57.043552,Clouds
135031.630,-0.0005852309986948967,-3.06800939142704e-05,-0.0013066530227661133,0.0007223896682262421,0.0010510527063161135,0.0020733075216412544,0.02523599,57.043552,Clouds
135031.660,0.0013592913746833801,-0.00019694538787007332,0.0008447766304016113,0.003924293909221888,0.0008994358358904719,0.001443435437977314,0.023941802,57.043552,Clouds
135031.690,0.001136651262640953,-0.0003795153461396694,-0.0012457966804504395,-0.001136742765083909,0.0009573254501447082,0.0006345672300085425,0.024389124,57.043552,Clouds
135031.720,0.0006616674363613129,-0.0013933745212852955,-0.00016242265701293945,0.0008873413316905499,0.0012516663409769535,0.0011332291178405285,0.022817034,57.043552,Clouds
135031.750,0.0014994917437434196,-0.0002713599242269993,-0.001749277114868164,0.0012124157510697842,3.654576721601188e-05,-0.0011253166012465954,0.022019342,57.043552,Clouds
135031.779,0.0013252170756459236,-0.00017744256183505058,-0.0012457966804504395,0.000408014515414834,0.000726393423974514,0.002030364703387022,0.021584695,57.043552,Clouds
135031.809,0.0008904216811060905,0.00010223174467682838,-0.0009405016899108887,0.00020699319429695606,-0.0005798706552013755,-0.0026461458764970303,0.020618498,57.043552,Clouds
135031.839,0.0003100419417023659,-0.0008757044561207294,0.0006155967712402344,-0.0013178997905924916,-0.0003833714872598648,0.00014410843141376972,0.019733978,57.043552,Clouds
135031.869,0.00026047416031360626,-0.0007134038023650646,-0.00017791986465454102,0.0008268596138805151,0.0003060265153180808,0.0006693731993436813,0.27989548,57.043552,Clouds
135031.899,0.0012794602662324905,-0.0006359550170600414,-0.0011696815490722656,0.0014213570393621922,-0.0005205689230933785,-0.001556905684992671,0.25140163,57.043552,Clouds
135031.929,1.757778227329254e-05,-0.0009481990709900856,0.0011801719665527344,-0.002593748737126589,0.0021942092571407557,0.000984204700216651,0.20221616,57.043552,Clouds
135031.959,0.0014500068500638008,-0.0005074813961982727,-0.005595028400421143,0.0016721037682145834,0.0024201178457587957,0.001232123002409935,0.18176474,57.043552,Clouds
135031.988,0.0011081453412771225,-0.00041797151789069176,-0.0003457069396972656,0.0007822711486369371,-1.3739088899455965e-05,-0.00016817264258861542,0.1635256,57.043552,Clouds
135032.018,-0.0013974104076623917,-0.00016659358516335487,0.002385556697845459,-0.0023569504264742136,0.0008379489299841225,-0.00151022057980299,0.13306539,57.043552,Clouds
135032.048,0.0009864447638392448,-0.0013620476238429546,-0.00582355260848999,0.0017160014249384403,-0.00024792394833639264,-0.0015481882728636265,0.12051485,57.043552,Clouds
135032.078,0.0007111476734280586,0.00031099189072847366,-0.006617248058319092,-0.00016753654927015305,0.0001320040028076619,-0.0018055200343951583,0.09903785,57.043552,Clouds
135032.108,-0.0004918323829770088,-0.000778289046138525,0.0005387663841247559,-0.0009022862650454044,0.0024197085294872522,0.00023416863405145705,0.09045875,57.043552,Clouds
135032.137,0.0009838920086622238,-0.0011430801823735237,-0.0012159943580627441,-0.001559438300319016,0.001171177951619029,-0.0003115258878096938,0.08220212,57.043552,Clouds
135032.167,0.00046242401003837585,0.00010212091729044914,-0.0029556751251220703,-0.0007291126530617476,-0.00042014673817902803,-0.0009469767101109028,0.06878665,57.043552,Clouds
135032.197,-0.00039251241832971573,-0.00130027299746871,0.0019267797470092773,0.00012874114327132702,0.002225048141553998,-0.0004995883209630847,0.06663876,57.043552,Clouds
135032.227,-0.0005067009478807449,-0.0008722967468202114,-0.000912010669708252,-0.0006118579767644405,-0.0027896787505596876,-0.000710095395334065,0.060997438,57.043552,Clouds
135032.257,0.0016695596277713776,0.0005471566691994667,-0.0005000829696655273,0.001659781439229846,0.002263513160869479,-0.0007762967143207788,0.05892789,57.043552,Clouds
135032.287,0.00039098504930734634,-0.00034694978967309,0.0006134510040283203,8.286931551992893e-05,-0.0001371803809888661,0.000981401652097702,0.054236636,57.043552,Clouds
135032.316,-0.0008126525208353996,-0.00290765892714262,0.00039970874786376953,-0.0008573750965297222,0.00294105289503932,0.00014417024794965982,0.048446797,57.043552,Clouds
135032.346,0.002413518726825714,-0.001083994284272194,-0.0002868771553039551,-0.00010800734162330627,-0.004842081572860479,-0.0010520857758820057,0.044861577,57.043552,Clouds
135032.376,0.00249295961111784,-0.00025928812101483345,-0.0021483898162841797,-0.0010045641101896763,-5.610666994471103e-05,-0.0010648618917912245,0.03915351,57.043552,Clouds
135032.407,-0.0012232018634676933,-0.0022829128429293633,0.0009643435478210449,-0.0001426867675036192,0.0012675188481807709,5.6666554883122444e-05,0.08845702,57.043552,Clouds
135032.437,-0.0002342183142900467,0.00014945212751626968,2.8014183044433594e-06,0.0009095210116356611,-0.00029886115225963295,0.0002757241891231388,0.081934296,57.043552,Clouds
135032.466,0.0017861835658550262,0.0018625576049089432,-0.0007905960083007812,0.00250537833198905,0.00038555418723262846,-0.000844121677801013,0.06760231,57.043552,Clouds
135032.496,0.0006788996979594231,-0.0013205362483859062,-0.0037206411361694336,0.0032600522972643375,-0.000509660632815212,-0.0004461891367100179,0.06134381,57.043552,Clouds
135032.526,0.0005472572520375252,-0.0011216518469154835,-0.001401364803314209,-0.00018366449512541294,0.0008001425303518772,0.00022579633514396846,0.0520137,57.043552,Clouds
135032.555,0.0016820039600133896,-0.00020427070558071136,-0.002759397029876709,0.0008536768145859241,-0.0006266373675316572,0.0004920024075545371,0.048312023,57.043552,Clouds
135032.585,0.0008291453123092651,0.0008678301237523556,0.0012229084968566895,-0.001081376918591559,2.249193494208157e-05,-0.0005865931161679327,0.044140343,57.043552,Clouds
135032.615,-0.0008025439456105232,-0.0010393578559160233,-0.0002728700637817383,-0.0003579682670533657,0.0006281511741690338,-0.0010611986508592963,0.03910201,57.043552,Clouds
135032.645,-0.00016329064965248108,-0.0010252180509269238,-0.0008221864700317383,-0.0010188480373471975,-0.0003362890565767884,0.0005443041445687413,0.037624206,57.043552,Clouds
135032.675,0.0018849866464734077,0.0014863493852317333,-0.002439439296722412,-0.00015998352319002151,0.00064714381005615,-0.0015425188466906548,0.036127802,57.043552,Clouds
135032.705,-4.8578716814517975e-05,-0.0005366350524127483,-0.0024240612983703613,-0.0023296382278203964,-0.0001512967428425327,-0.0016599927330389619,0.035461355,57.043552,Clouds
135032.735,-0.0008467547595500946,-0.0016331877559423447,0.0007805228233337402,0.0011185889597982168,0.00016309041529893875,0.00032347135129384696,0.03441831,57.043552,Clouds
135032.764,0.0023339325562119484,0.0002647680230438709,-0.0004709959030151367,0.00018356204964220524,-0.0005891311448067427,0.002899043494835496,0.031420745,57.043552,Clouds
135032.794,0.0021771881729364395,-0.0005038934759795666,-0.0027292370796203613,0.0016973547171801329,-0.0005181074375286698,-0.0017433343455195427,0.028738353,57.043552,Clouds
135032.824,-0.0008506877347826958,-0.0016803150065243244,-1.2814998626708984e-05,0.003625038079917431,0.0007278066477738321,-0.0003006694605574012,0.024284558,57.043552,Clouds
135032.854,0.0003924639895558357,-0.0004045316018164158,-0.0010654330253601074,0.0006632059812545776,-0.00023442365636583418,0.00037236433126963675,0.022337671,57.043552,Clouds
135032.884,0.0026903655380010605,0.0005666445940732956,-0.0003940463066101074,-3.57010867446661e-05,-0.00022197497310116887,0.0009238818311132491,0.020826425,57.043552,Clouds
135032.914,0.0008966047316789627,-9.483518078923225e-05,0.0015134215354919434,0.00026709679514169693,0.0006602900102734566,-0.0002567758201621473,0.01908659,57.043552,Clouds
135032.943,-1.1340714991092682e-05,-0.0004619029350578785,-0.000714421272277832,0.0015148508828133345,-0.00020005326950922608,-0.0002000978565774858,0.018821621,57.043552,Clouds
135032.973,0.0006642462685704231,-0.0008114585652947426,-0.0005922913551330566,-0.00037993048317730427,0.0012692958116531372,-0.00036572152748703957,0.016929643,57.043552,Clouds
135033.003,0.00041892100125551224,0.0002962159924209118,0.0010097026824951172,0.0018855289090424776,0.002081529004499316,-0.000939423218369484,0.025137478,57.043552,Clouds
135033.033,0.0004922272637486458,-0.0004623066633939743,-0.004193544387817383,-0.00020045554265379906,0.0015547125367447734,0.0003379993431735784,0.023730863,57.043552,Clouds
135033.063,0.001119871623814106,-0.00010031089186668396,-0.0025765299797058105,0.0021090274676680565,-0.0007005267543718219,0.00042995461262762547,0.021105124,57.043552,Clouds
135033.092,0.0006848908960819244,-0.0009047468192875385,-0.00024193525314331055,-0.001179813756607473,0.0005444744601845741,-2.2395222913473845e-05,0.019957857,57.043552,Clouds
135033.122,3.946386277675629e-05,-0.0005005029961466789,0.0022910237312316895,-0.0006226273253560066,0.001422605011612177,-0.0002440736861899495,0.018285718,57.043552,Clouds
135033.152,0.0018493495881557465,0.0006825006566941738,-0.0021491050720214844,-0.001296639908105135,-0.00018104784248862416,-0.0014258669689297676,0.017956313,57.043552,Clouds
135033.182,0.0009208712726831436,3.510713577270508e-05,0.0005516409873962402,0.00015665660612285137,-0.00015249583520926535,-0.0021797504741698503,0.020567823,57.043552,Clouds
135033.212,-0.000246402807533741,-0.0015220497734844685,0.000597536563873291,-0.0029877424240112305,0.000828471384011209,-0.0007442155038006604,0.017835746,57.043552,Clouds
135033.241,0.0008898945525288582,-0.00053068483248353,-0.0005315542221069336,-0.0030992040410637856,0.002266604918986559,-0.0017868592403829098,0.01820003,57.043552,Clouds
135033.271,0.0030760224908590317,0.00024047819897532463,-0.0029267072677612305,-0.0030090168584138155,0.0007104753749445081,-0.0014709385577589273,0.016774116,57.043552,Clouds
135033.302,-0.00025876332074403763,-0.0006628041155636311,-0.0045441389083862305,-0.0020531974732875824,0.00013732045772485435,0.0010576609056442976,0.015981155,57.043552,Clouds
135033.331,-0.0007149809971451759,-0.0007882886566221714,0.0016050934791564941,-0.0007267361506819725,0.002455972135066986,0.0004399687168188393,0.01597317,57.043552,Clouds
135033.361,0.002195814624428749,0.001018234994262457,-0.0006840229034423828,0.0013933395966887474,4.6528002712875605e-05,0.0003311863401904702,0.023164725,57.043552,Clouds
135033.391,0.0009144162759184837,-0.00025818077847361565,-0.004345595836639404,0.00027300254441797733,-0.0027027796022593975,-0.001010840991511941,0.022909684,57.043552,Clouds
135033.421,-1.5741214156150818e-05,-0.0007542595267295837,0.001772761344909668,0.0016084632370620966,-0.0002564969181548804,-0.0025739066768437624,0.01993797,57.043552,Clouds
135033.450,0.00018689408898353577,-0.0002774680033326149,-0.0006836652755737305,-0.001635063556022942,-0.00012386265734676272,0.0007821858744136989,0.018577257,57.043552,Clouds
135033.480,0.0014665164053440094,0.0005639819428324699,-0.001477062702178955,-0.001073009567335248,0.0016676856903359294,0.0010135408956557512,0.018432707,57.043552,Clouds
135033.510,0.0006880732253193855,-0.0009573614224791527,-0.0008366107940673828,-5.9605808928608894e-05,-0.002715330570936203,-0.0020427117124199867,0.019139556,57.043552,Clouds
135033.540,-0.0004824204370379448,-0.0017626327462494373,0.0001245737075805664,0.002065755194053054,5.828100256621838e-06,-0.00019795651314780116,0.017850792,57.043552,Clouds
135033.570,0.0016244156286120415,-5.118595436215401e-05,-0.001630246639251709,0.0003765001893043518,-0.0028383343014866114,0.00012054888065904379,0.01563487,57.043552,Clouds
135033.600,0.0011952463537454605,-1.8621329218149185e-05,0.0022152066230773926,-0.001132553443312645,-0.0012593819992616773,-0.0015679046045988798,0.01590656,57.043552,Clouds
135033.629,-0.00102953240275383,-4.059448838233948e-05,0.0020325183868408203,-0.0025760065764188766,0.001039516064338386,-0.0009804904693737626,0.015079603,57.043552,Clouds
135033.659,0.00028453022241592407,-0.0006035338155925274,-0.001950383186340332,0.00011362694203853607,-0.000597482081502676,0.00033398979576304555,0.015312255,57.043552,Clouds
135033.689,0.00047635752707719803,-0.0004898784682154655,0.00014007091522216797,0.003155509475618601,0.0006894650286994874,0.0004284682800062001,0.0147813335,57.043552,Clouds
135033.718,0.001525120809674263,-7.94711522758007e-05,-0.0006077289581298828,0.0027488202322274446,-0.0014733546413481236,-0.0005705073708668351,0.013778415,57.043552,Clouds
135033.748,0.0014981534332036972,-0.0004252842627465725,-0.0014163851737976074,-0.00011887610889971256,-0.0004328296927269548,0.0002259970351587981,0.013429763,57.043552,Clouds
135033.779,-0.0004464210942387581,-0.001051612664014101,0.0005979537963867188,0.0016352050006389618,-0.0010592835023999214,0.001058872789144516,0.027369926,57.043552,Clouds
135033.809,-0.001026979647576809,-0.00046937819570302963,-0.0007598996162414551,-6.376090459525585e-05,-0.0023631053045392036,-0.0011474016355350614,0.024222478,57.043552,Clouds
135033.838,0.0020450837910175323,-6.043817847967148e-06,-0.0005612373352050781,-0.0004584647249430418,-0.0006253605824895203,0.0007288507767952979,0.023789136,57.043552,Clouds
135033.868,0.002458781935274601,3.218837082386017e-05,-0.0006679892539978027,-0.0007557785138487816,-0.0022795256227254868,0.00010083898087032139,0.022493096,57.043552,Clouds
135033.898,-0.0016800258308649063,-0.00025360146537423134,-7.277727127075195e-05,-0.0008659565355628729,-0.0012669750722125173,0.0010954340687021613,0.020941423,57.043552,Clouds
135033.928,-0.0014960356056690216,-0.00085120415315032,-0.0003781914710998535,-0.0035323717165738344,-0.00016961318033281714,0.0004998932708986104,0.019392956,57.043552,Clouds
135033.958,0.0027025043964385986,0.0003065532073378563,0.002474844455718994,0.003240362973883748,-0.0002189303340855986,-0.0007429904071614146,0.017068047,57.043552,Clouds
135033.987,0.0025037527084350586,0.0005139224231243134,-0.002042055130004883,-0.0017349119298160076,-0.0016617143992334604,9.933137334883213e-06,0.0162769,57.043552,Clouds
135034.017,-0.001159273087978363,-0.0007010772824287415,0.00024688243865966797,-0.0015192062128335238,-0.0002929265901912004,0.00017448639846406877,0.025550423,57.043552,Clouds
135034.047,-0.0007467959076166153,-0.00015678675845265388,0.0003993511199951172,0.0018255736213177443,-0.0022264928556978703,-0.000782627088483423,0.023877779,57.043552,Clouds
135034.076,0.0027427133172750473,6.578955799341202e-05,0.0003380775451660156,0.0020847958512604237,5.0251022912561893e-05,-0.0013892168644815683,0.02352255,57.043552,Clouds
135034.106,0.0018628193065524101,-0.0004972335882484913,-0.0018289685249328613,0.0023866654373705387,0.0002414822520222515,0.0018561877077445388,0.020862631,57.043552,Clouds
135034.136,-0.0011100862175226212,-0.0012002764269709587,1.710653305053711e-05,0.0007519600912928581,-0.0003948754456359893,0.0017741856863722205,0.019805364,57.043552,Clouds
135034.166,-0.001193959265947342,-0.0002407715655863285,0.0002765059471130371,0.0016451277770102024,-7.72894563851878e-05,-0.0016519237542524934,0.020232284,57.043552,Clouds
135034.196,0.0015342449769377708,0.00010741036385297775,0.00035309791564941406,0.002194730332121253,-0.0004210961051285267,-0.00021340296370908618,0.019050721,57.043552,Clouds
135034.226,0.0012959577143192291,-0.00044098077341914177,-0.0014628171920776367,-0.0021895132958889008,0.0004911929718218744,-0.002403880236670375,0.034207467,57.043552,Clouds
135034.256,0.0014046840369701385,-0.0003326893784105778,-0.0015696883201599121,0.0006094833370298147,-0.0005303971702232957,-0.0008927569724619389,0.031517807,57.043552,Clouds
135034.285,0.0002576131373643875,-0.0004840884357690811,-0.00044035911560058594,-0.002404039027169347,-0.00015356378571595997,-0.00024197157472372055,0.029268334,57.043552,Clouds
135034.315,-0.0008141389116644859,-0.0008395942859351635,-0.0008826255798339844,0.00036727264523506165,0.0017764815129339695,0.0010601056274026632,0.033799697,57.043552,Clouds
135034.345,-0.00011418573558330536,-0.00037786271423101425,0.000368654727935791,0.0004067635163664818,0.0014266713988035917,-0.0010267873294651508,0.032044046,57.043552,Clouds
135034.375,0.0024837208911776543,0.0002727494575083256,-0.0017066597938537598,-0.0007749465294182301,0.0004080201906617731,-0.0017913583433255553,0.03021907,57.043552,Clouds
135034.405,0.0018090847879648209,-0.0005263700149953365,-0.0009742379188537598,0.003225739346817136,0.001235230010934174,-0.001509929308667779,0.028728629,57.043552,Clouds
135034.435,-0.0021820180118083954,-0.0008953516371548176,0.0008568167686462402,0.0007016875315457582,-0.0002788807323668152,0.0009302969556301832,0.028127592,57.043552,Clouds
135034.464,-0.0026513906195759773,3.382796421647072e-05,-0.0008216500282287598,0.001231508795171976,0.0006525290664285421,-0.0018788424786180258,0.026861561,57.043552,Clouds
135034.494,0.004027115181088448,0.0013592354953289032,-0.0028359293937683105,0.0022484539076685905,0.000766490469686687,0.0014133116928860545,0.025148805,57.043552,Clouds
135034.524,0.0027866195887327194,-0.00019139982759952545,-0.0001195073127746582,-0.0002974781673401594,0.0002639700542204082,0.00023235418484546244,0.023986386,57.043552,Clouds
135034.554,-0.0024672914296388626,-0.001161719672381878,0.000994861125946045,-0.002656955737620592,0.0019848698284476995,0.0006962001207284629,0.021967659,57.043552,Clouds
135034.584,-0.0006823698058724403,-0.00011003436520695686,-0.00048542022705078125,0.001122625544667244,0.004329659044742584,-0.0003505399217829108,0.0323617,57.043552,Clouds
135034.614,0.003921101801097393,0.0018357527442276478,-0.00010371208190917969,-0.001963395159691572,0.0006807817844673991,0.0002892565098591149,0.105966136,57.043552,Clouds
135034.643,0.002008478157222271,0.0005583916790783405,-0.0013701915740966797,-0.0017303243512287736,-0.0006329775787889957,-0.0014837291091680527,0.100867905,57.043552,Clouds
135034.673,-0.002160807140171528,-0.0008156360127031803,-0.0018888115882873535,-0.0009962322656065226,-0.000591273361351341,-0.0002547316253185272,0.10013349,57.043552,Clouds
135034.703,-0.0011271387338638306,-0.0005448265001177788,-0.004070460796356201,-0.0009055961854755878,0.0008511279011145234,-0.0017462820978835225,0.08440698,57.043552,Clouds
135034.733,0.002458379603922367,-6.653973832726479e-05,-0.0019188523292541504,0.0006288753356784582,0.00040729469037614763,-0.001470531802624464,0.0758038,57.043552,Clouds
135034.763,0.0025237612426280975,0.0008241534233093262,0.0008277297019958496,-0.0035528591834008694,-0.0004921091604046524,-0.0012477817945182323,0.06929679,57.043552,Clouds
135034.792,0.0012078424915671349,8.24970193207264e-05,-0.0017054080963134766,-0.0011399968061596155,0.0004132022149860859,-0.0010910860728472471,0.058577564,57.043552,Clouds
135034.822,-0.0016897879540920258,-0.0008545909076929092,-0.0010037422180175781,0.00020293309353291988,-0.0011540325358510017,-0.0004842145135626197,0.053189617,57.043552,Clouds
135034.852,-0.00032864976674318314,-0.000957113690674305,0.0014221668243408203,0.0005104318261146545,-0.0006444229511544108,-0.0009826576570048928,0.04487771,57.043552,Clouds
135034.882,0.002194969914853573,8.437735959887505e-05,0.0032230019569396973,-0.0009393424261361361,-0.0004967976128682494,0.0005897636292502284,0.042671874,57.043552,Clouds
135034.912,0.0022533563897013664,0.0006208634003996849,-0.0027889013290405273,0.002471872139722109,-0.0006468410138040781,0.0002599299477878958,0.039100002,57.043552,Clouds
135034.942,-0.001107621006667614,-0.0010066432878375053,-0.0009426474571228027,-0.0007794559933245182,0.00025001278845593333,-0.0005884459824301302,0.033413894,57.043552,Clouds
135034.972,-0.0005022678524255753,-0.0014713937416672707,0.0034670233726501465,-5.152379162609577e-05,-0.0005420256638899446,-0.0006136363372206688,0.030928006,57.043552,Clouds
135035.001,0.003160296007990837,0.0009332625195384026,-0.0013238787651062012,-0.0014568499755114317,-0.0034996545873582363,-0.002393570728600025,0.027539765,57.043552,Clouds
135035.031,-0.0001189354807138443,-0.0007126103155314922,-0.0028494596481323242,-0.000784148694947362,-0.0003273164911661297,0.0005742431385442615,0.025741328,57.043552,Clouds
135035.061,-0.001742970198392868,-0.0011064461432397366,0.0018202662467956543,-0.0005523266736418009,-0.0007003550417721272,0.0006281391833908856,0.024039624,57.043552,Clouds
135035.090,0.0026428718119859695,0.0010239151306450367,0.0012862682342529297,0.0015396189410239458,0.0011361228534951806,0.0011791852302849293,0.021231133,57.043552,Clouds
135035.121,0.0009910771623253822,0.0008714688010513783,-0.0020554661750793457,0.0003809225745499134,-7.271535287145525e-05,-0.0010988814756274223,0.020204952,57.043552,Clouds
135035.151,-0.0012477496638894081,-0.001177892554551363,-0.0004075765609741211,0.00034648808650672436,0.0009251945884898305,0.0014347860123962164,0.022806546,57.043552,Clouds
135035.180,4.673469811677933e-05,-0.0013572461903095245,-0.0011553764343261719,-0.0016425601206719875,-0.0003953563282266259,-0.0009202243527397513,0.029356204,57.043552,Clouds
135035.210,0.002687743864953518,-8.475827053189278e-05,-0.003185093402862549,0.00013933680020272732,-0.000702635501511395,0.0013193225022405386,0.032116584,57.043552,Clouds
135035.240,0.001913917250931263,-0.0002218307927250862,0.0001716017723083496,9.382190182805061e-05,0.0020887975115329027,-0.0024785210844129324,0.043485433,57.043552,Clouds
135035.270,-0.0013684919103980064,-0.0012784749269485474,0.002750098705291748,-0.0022552059963345528,-0.000676363764796406,0.0005964581505395472,0.04056943,57.043552,Clouds
135035.300,0.00032554008066654205,-0.0007031052373349667,-0.0004239082336425781,0.002183318603783846,0.0008860793896019459,-0.0020031931344419718,0.035957154,57.043552,Clouds
135035.329,0.0008609602227807045,-8.971896022558212e-05,-0.004345715045928955,0.001516916323453188,-0.001573387417010963,-0.001883858465589583,0.03459757,57.043552,Clouds
135035.359,0.00019374582916498184,-0.0010675392113626003,0.0008725523948669434,0.00484507018700242,0.001273898407816887,-0.001983760390430689,0.033262875,57.043552,Clouds
135035.389,-0.0010840445756912231,-0.0006560352630913258,-0.0008516311645507812,0.0008731365669518709,0.0011953064240515232,-0.0008877756190486252,0.029243255,57.043552,Clouds
135035.419,0.0010619619861245155,-0.0001539178192615509,-0.0015385150909423828,-0.0011043197009712458,-0.0016723080771043897,-0.00042292207945138216,0.02723752,57.043552,Clouds
135035.448,0.0023790933191776276,7.056631147861481e-06,0.0003387928009033203,-0.001333456253632903,-0.0003869718639180064,0.0003566764644347131,0.023307478,57.043552,Clouds
135035.478,-0.0011904481798410416,-0.0007107285782694817,-0.00019550323486328125,-0.00021061720326542854,-0.0007273914525285363,0.000598493788857013,0.02161025,57.043552,Clouds
135035.508,-0.0003300374373793602,-0.0011921594850718975,-0.0006378889083862305,0.00044911541044712067,0.0011557225370779634,0.0009190574637614191,0.020468755,57.043552,Clouds
135035.538,0.003089338541030884,-0.00021254224702715874,-0.0019350647926330566,0.0018050654325634241,0.00037937116576358676,-0.00010318955173715949,0.018610287,57.043552,Clouds
135035.568,0.0007667811587452888,-4.727346822619438e-05,-0.0009735822677612305,0.00019377609714865685,-0.0011216640705242753,0.0008586085750721395,0.017279832,57.043552,Clouds
135035.598,-0.0013776421546936035,-0.0017521735280752182,-0.00011920928955078125,0.0010204040445387363,0.00010386374196968973,-0.0006291958270594478,0.016171245,57.043552,Clouds
135035.628,0.0018853601068258286,0.0006970725953578949,0.0013450384140014648,0.001433198805898428,0.0009336802759207785,-0.0015119996387511492,0.016058864,57.043552,Clouds
135035.658,0.002663259394466877,0.00011127907782793045,0.0005667805671691895,-0.001708959462121129,0.0013423364143818617,0.0006813116488046944,0.015634162,57.043552,Clouds
135035.687,-0.0005573155358433723,-0.001612657681107521,-0.0003485679626464844,-0.00023557874374091625,-0.0010921815410256386,-9.764637798070908e-05,0.016691389,57.043552,Clouds
135035.717,-0.000781557522714138,-0.0005042795091867447,0.002336561679840088,-0.0013637469382956624,0.0005134509992785752,0.002653813688084483,0.021872569,57.043552,Clouds
135035.747,0.0028146877884864807,0.0011154920794069767,-0.00021153688430786133,0.0024355147033929825,0.0010166942374780774,-0.0005901267286390066,0.036773447,57.043552,Clouds
135035.777,0.0008395491167902946,-0.0004593697376549244,-0.002500474452972412,0.0012003229930996895,-0.00023244843760039657,-0.00045200373278930783,0.034692284,57.043552,Clouds
135035.807,-0.0015297429636120796,-0.0017365184612572193,0.0010856389999389648,0.00039245723746716976,-0.00029519101371988654,-0.0006954017444513738,0.033084556,57.043552,Clouds
135035.837,0.0010810401290655136,-0.00014141341671347618,-0.0016147494316101074,-0.0009019591379910707,-4.7471257857978344e-07,-0.0005920840194448829,0.029936641,57.043552,Clouds
135035.866,0.0028612222522497177,-0.000583259854465723,-0.003491640090942383,-0.0001978464424610138,0.0010980829829350114,0.0005845123087055981,0.028942,57.043552,Clouds
135035.896,0.0007159607484936714,-0.001268066931515932,0.0011774301528930664,0.000912282383069396,0.0009284068364650011,-0.000802902621217072,0.034978453,57.043552,Clouds
135035.926,-0.0019129877910017967,0.0005397526547312737,0.0007957816123962402,0.002445702441036701,0.00132230285089463,-0.0006788658211007714,0.034715462,57.043552,Clouds
135035.956,0.0013566957786679268,0.0007724468596279621,-0.0001957416534423828,-4.207249730825424e-05,-0.0017498477827757597,-0.0008098679827526212,0.03358604,57.043552,Clouds
135035.986,0.0008551450446248055,-7.81472772359848e-06,-0.002667367458343506,0.00011427653953433037,0.00022042007185518742,0.0010024448856711388,0.03110054,57.043552,Clouds
135036.015,-0.0013964818790555,-0.001288475003093481,-0.0017519593238830566,0.0004162183031439781,0.001995064551010728,-0.0008551997598260641,0.039784446,57.043552,Clouds
135036.045,0.0015524886548519135,0.00025315023958683014,0.0028865933418273926,-0.001852517481893301,0.00013343922910280526,0.001380296889692545,0.035105273,57.043552,Clouds
135036.075,0.003387248143553734,-0.0002030809409916401,-0.001843273639678955,-0.0003269778098911047,0.0002154768444597721,-0.00032177584944292903,0.03261736,57.043552,Clouds
135036.104,-0.001464839093387127,-0.0004256283864378929,-0.0029416680335998535,-0.001425878144800663,0.0014305752702057362,-0.001244887593202293,0.0318189,57.043552,Clouds
135036.134,-0.0010189563035964966,-0.0005157464183866978,-0.000789940357208252,-0.0008143435698002577,0.0008186124032363296,0.00042047735769301653,0.027900299,57.043552,Clouds
135036.165,0.001372513361275196,-0.00029267463833093643,0.00020182132720947266,0.0021472538355737925,0.0016232513589784503,-0.0005291806883178651,0.026117897,57.043552,Clouds
135036.194,0.0008415393531322479,-0.00021552154794335365,-0.0014156699180603027,-0.0008890070021152496,0.0001469493145123124,0.0009993058629333973,0.02710428,57.043552,Clouds
135036.224,-0.0002780472859740257,-0.0007691448554396629,0.0003241300582885742,0.0015587785746902227,-0.002860622014850378,0.0019073146395385265,0.025417915,57.043552,Clouds
135036.254,0.0021408554166555405,-0.00015465868636965752,-0.0013542771339416504,0.001067310106009245,0.002068845322355628,-0.00012041907757520676,0.024185445,57.043552,Clouds
135036.284,0.0018072128295898438,0.00024804146960377693,-0.0005914568901062012,-0.0015015446115285158,0.001155679114162922,-0.004026405047625303,0.0217408,57.043552,Clouds
135036.314,-0.002504142001271248,-0.0012650699354708195,0.000598907470703125,0.0030302416998893023,-0.0005016556824557483,0.0010813458357006311,0.02152655,57.043552,Clouds
135036.343,0.001860789954662323,-0.0007744072936475277,-0.0017966032028198242,-0.0004447281826287508,-0.0013843972701579332,-0.002378754084929824,0.02377726,57.043552,Clouds
135036.373,0.0028208354488015175,0.0001281951554119587,0.0005989670753479004,0.001481418963521719,0.0004533367755357176,0.002445608377456665,0.027132291,57.043552,Clouds
135036.403,-0.0009325919672846794,-0.0002230936661362648,-0.003917813301086426,-0.0030708133708685637,0.0009356958908028901,-0.0016149899456650019,0.026556114,57.043552,Clouds
135036.433,-0.00027988851070404053,-0.00039157504215836525,0.00029331445693969727,-0.00028550950810313225,-0.0014193002134561539,-0.000892455514986068,0.024006622,57.043552,Clouds
135036.463,0.0026917671784758568,-0.000457648653537035,-0.00020998716354370117,0.001110088312998414,-0.0028112533036619425,-0.0015664526727050543,0.03149661,57.043552,Clouds
135036.493,0.0014556609094142914,-0.0005083163268864155,-0.0015984177589416504,-0.0013040464837104082,-0.003336407011374831,-0.001707806484773755,0.049320802,57.043552,Clouds
135036.523,-0.001521979458630085,-0.000759761780500412,-0.0015981197357177734,-0.0002544163726270199,-0.0022456450387835503,-9.57486336119473e-05,0.04720904,57.043552,Clouds
135036.552,0.00035167112946510315,-0.00015603192150592804,-0.0019185543060302734,-0.00029990123584866524,0.0018482061568647623,5.363277159631252e-05,0.045087244,57.043552,Clouds
135036.582,0.00208351481705904,-0.00040959473699331284,0.0009504556655883789,-0.001123699825257063,-0.0011993353255093098,-0.0017878618091344833,0.0398152,57.043552,Clouds
135036.612,0.0005511455237865448,-0.001073246356099844,-0.0015211701393127441,-0.0013521501095965505,0.00035511975875124335,-0.001457695965655148,0.037110373,57.043552,Clouds
135036.642,0.0001404760405421257,0.0007050065323710442,-0.000896155834197998,0.00038403039798140526,0.0004527358687482774,0.0007519002538174391,0.03155065,57.043552,Clouds
135036.672,0.002189893275499344,0.0003879806026816368,-7.236003875732422e-05,0.00083572743460536,0.001889598905108869,0.0010369140654802322,0.03076081,57.043552,Clouds
135036.702,0.0015194006264209747,-0.0011574774980545044,0.0015603899955749512,-0.00040677119977772236,-0.001632198691368103,-0.001151316799223423,0.029024515,57.043552,Clouds
135036.731,-0.00015651807188987732,-0.0014305817894637585,-0.0015067458152770996,0.001564476639032364,-0.001493549207225442,-0.001315788715146482,0.026464805,57.043552,Clouds
135036.761,0.0002586944028735161,-0.000879333820194006,-0.0027881860733032227,0.000590108335018158,-0.0012183256912976503,-0.0008686290238983929,0.025256814,57.043552,Clouds
135036.791,0.0016314918175339699,-0.0007208604365587234,0.0009197592735290527,-0.0001805510837584734,-0.0017111662309616804,0.00029173988150432706,0.050193638,57.043552,Clouds
135036.821,0.0013770516961812973,-0.00037201400846242905,-0.0002855658531188965,0.0011037297081202269,2.775268512777984e-05,-0.0006384977605193853,0.046766575,57.043552,Clouds
135036.851,0.000852169468998909,-0.0005209352821111679,-0.0008500218391418457,-0.0014792613219469786,-0.000773397390730679,0.0003625376266427338,0.04726133,57.043552,Clouds
135036.880,0.0014822250232100487,-0.0009169713594019413,-0.0012770891189575195,0.00038816523738205433,0.0005293587455525994,-0.0004558895598165691,0.04198718,57.043552,Clouds
135036.910,2.5333836674690247e-05,-0.001385923009365797,0.0009049177169799805,0.0010127583518624306,7.540627848356962e-06,-0.002800415502861142,0.039338205,57.043552,Clouds