Timestamp,AccelX,AccelY,AccelZ,GyroX,GyroY,GyroZ,AudioLevel,LightLevel,Weather
134716.684,0.0001031355932354927,-0.0007101460359990597,-0.0021842122077941895,0.0008532863575965166,0.0014755266020074487,-0.002728260587900877,1e-06,59.44601,Unknown
134716.739,-1.9140541553497314e-05,0.000651190523058176,-0.0006887912750244141,-0.0012105870991945267,-0.0003436657425481826,0.0014200475998222828,1e-06,59.44601,Unknown
134716.739,0.0006929384544491768,0.00045976927503943443,-0.001222848892211914,0.0010927345138043165,0.0005951393395662308,0.0010305042378604412,1e-06,59.44601,Unknown
134716.740,0.0005509341135621071,0.00010650558397173882,-0.0019095540046691895,-0.0019113896414637566,-0.0013295895187184215,-0.001900940085761249,1e-06,59.44601,Unknown
134716.798,-0.0005928250029683113,-0.0001224190928041935,-0.0030539631843566895,-0.003886746009811759,-0.00048222538316622376,-0.0004696317482739687,1e-06,59.44601,Unknown
134716.801,0.00011349562555551529,-0.00014134123921394348,-0.0019399523735046387,0.0014225163031369448,0.002387687098234892,-0.00048265187069773674,1e-06,59.44601,Unknown
134716.806,0.00032395869493484497,-0.000383501872420311,-0.0012990236282348633,-0.0022967825643718243,0.0006995591102167964,0.0005826487322337925,1e-06,59.44601,Unknown
134716.836,0.00020406022667884827,-0.0006705708801746368,-0.0024129152297973633,0.0012240095529705286,-0.00038035830948501825,-0.0016610663151368499,1e-06,59.44601,Unknown
134716.865,-0.00022366922348737717,0.0007570651359856129,-0.002504885196685791,0.0017644597683101892,0.0011210422962903976,-0.0003526908694766462,1e-06,59.44601,Unknown
134716.895,0.0010078605264425278,0.00019846903160214424,-0.002108156681060791,-0.0040260483510792255,-0.0008397595956921577,-0.00018897035624831915,1e-06,59.44601,Unknown
134716.925,0.0013313675299286842,-0.000321987085044384,0.00030243396759033203,0.002220386639237404,-0.0029060819651931524,0.00044304493349045515,1e-06,59.44601,Unknown
134716.955,-3.625452518463135e-05,0.0003735804930329323,-0.0016505718231201172,0.0024224233347922564,-0.000793885556049645,-0.0014129625633358955,1e-06,59.44601,Clouds
134716.984,0.0003651231527328491,-0.001725940965116024,-0.002245962619781494,-0.004109155386686325,9.096806752495468e-05,-0.00044003326911479235,1e-06,59.44601,Clouds
134717.014,0.0008671153336763382,-0.00037892255932092667,-0.001772761344909668,3.696768544614315e-05,0.002410954562947154,-0.003646321129053831,1e-06,59.44601,Clouds
134717.044,0.00043010059744119644,-0.0005811643786728382,-0.0011472702026367188,-0.0008599513676017523,-0.0008958029793575406,-0.0004979466320946813,1e-06,59.44601,Clouds
134717.074,-0.0007737353444099426,8.526956662535667e-05,-0.002581775188446045,0.000983217265456915,-0.0016681530978530645,-0.0005385196418501437,1e-06,59.44601,Clouds
134717.104,0.00016252975910902023,0.0005228356458246708,-0.002169489860534668,0.000983517849817872,-0.0005219882586970925,-0.0009454971877858043,1e-06,59.44601,Clouds
134717.134,0.0015957346186041832,0.0003909054212272167,-0.0017731785774230957,0.003836805932223797,0.001410011202096939,-0.00023156363749876618,1e-06,59.44601,Clouds
134717.164,0.00015084538608789444,-0.0003481232561171055,-0.0011933445930480957,0.0013777450658380985,-0.0010082692606374621,0.0005076057277619839,1e-06,59.44601,Clouds
134717.193,-0.0015411535277962685,-0.0005298391915857792,-0.0022923946380615234,2.381601370871067e-05,0.0012016496621072292,-0.0008754832088015974,1e-06,59.44601,Clouds
134717.223,0.000756140798330307,3.958679735660553e-05,-0.0026430487632751465,0.0032028891146183014,-0.0003752836782950908,-0.0014387667179107666,1e-06,59.44601,Clouds
134717.253,0.0005565406754612923,0.0010079951025545597,0.0018279552459716797,-0.0002678816672414541,-0.0023347814567387104,-0.0008762127254158258,1e-06,59.44601,Clouds
134717.283,0.0004109032452106476,0.0007006549276411533,-0.002841055393218994,4.2747706174850464e-07,0.0004335437552072108,0.0009936668211594224,1e-06,60.908493,Clouds
134717.313,-0.000597052276134491,0.0007075062021613121,-0.0017120838165283203,0.002041538944467902,-0.0009400363778695464,0.0022028759121894836,1e-06,60.908493,Clouds
134717.343,-0.00033918023109436035,-0.00022993050515651703,-0.001041114330291748,0.0023520835675299168,-0.0008971496718004346,-0.00015448068734258413,1e-06,60.908493,Clouds
134717.373,0.0009361691772937775,-2.6604626327753067e-05,-0.0001412034034729004,0.0022675616201013327,0.0007441379129886627,-0.0006004482274875045,1e-06,60.908493,Clouds
134717.402,-7.998570799827576e-05,0.0002621430903673172,-0.0014535188674926758,0.0026941359974443913,1.4069490134716034e-05,0.0016028122045099735,1e-06,60.908493,Clouds
134717.432,-0.0010993778705596924,0.0004694615490734577,-0.0020340681076049805,0.0004964582622051239,-0.0010401158360764384,-0.0015190490521490574,1e-06,60.908493,Clouds
134717.462,0.0006313268095254898,-0.00019587762653827667,-0.0018052458763122559,0.001511621754616499,-8.444732520729303e-05,0.0010429410031065345,1e-06,60.908493,Clouds
134717.492,0.0005633169785141945,-0.00016956403851509094,-0.0016831755638122559,-0.0003258653450757265,-0.0017053061164915562,-0.00016921485075727105,1e-06,60.908493,Clouds
134717.522,0.00014800019562244415,0.00047677336260676384,-0.0019426345825195312,6.761914119124413e-05,5.038149538449943e-05,-0.0006969135720282793,1e-06,60.908493,Clouds
134717.552,0.0009964341297745705,-0.00040998077020049095,-0.0013935565948486328,0.00026191072538495064,-0.0011333972215652466,-0.0008442625403404236,1e-06,60.908493,Clouds
134717.581,0.0009113568812608719,-0.00024656811729073524,-0.0023851394653320312,-0.0015942289028316736,-0.000783184717874974,0.0011366192484274507,1e-06,60.908493,Clouds
134717.611,0.0006086016073822975,4.874682053923607e-05,-0.0018970370292663574,-0.0032921263482421637,0.0005392227321863174,-0.0006310068420134485,1e-06,60.908493,Clouds
134717.641,-0.0007527340203523636,7.281452417373657e-05,-0.000615537166595459,0.0007685262244194746,-0.00023939303355291486,-0.0005867510917596519,1e-06,60.908493,Clouds
134717.671,0.0013961195945739746,0.00038073863834142685,-0.0017292499542236328,-0.0019511677091941237,0.00019080136553384364,-0.002534274710342288,1e-06,60.908493,Clouds
134717.701,0.0002786405384540558,-0.00016562733799219131,-0.002919495105743408,0.0019215610809624195,-0.0015896521508693695,-0.00032043340615928173,1e-06,60.908493,Clouds
134717.730,0.0001373346894979477,0.0006470452062785625,-0.0018973946571350098,0.0003611822612583637,-5.752256402047351e-05,0.0006062453612685204,1e-06,60.908493,Clouds
134717.760,-0.00037646759301424026,-2.040853723883629e-05,0.009317398071289062,-0.0007143004331737757,0.0011245512869209051,0.0002811025478877127,1e-06,60.908493,Clouds
134717.790,0.0007628770545125008,0.0004363423213362694,-0.00412517786026001,0.0005421710666269064,-0.0019844418857246637,0.001987102208659053,1e-06,60.908493,Clouds
134717.876,-4.292093217372894e-05,0.0002639535814523697,-0.0007677674293518066,0.0015640603378415108,-3.767987072933465e-05,-2.3218803107738495e-05,0.057337634,60.908493,Clouds
134717.876,-0.00031123869121074677,0.00024112826213240623,-0.0019272565841674805,-7.951213046908379e-05,-0.0005291932611726224,-0.0018894292879849672,0.057337634,60.908493,Clouds
134717.879,0.0001873178407549858,-1.4955643564462662e-05,-0.001591503620147705,-0.0013145264238119125,-0.0016226110747084022,-0.001497381366789341,0.057337634,60.908493,Clouds
134717.909,0.00046849343925714493,-0.0005302121862769127,-0.0016528964042663574,0.0011221831664443016,-0.001213069655932486,0.00019654989591799676,0.0558158,60.670406,Clouds
134717.939,0.0002390686422586441,0.00010604457929730415,-0.002507030963897705,0.00025939405895769596,0.000454695982625708,-0.0008675688877701759,0.051120523,60.670406,Clouds
134717.969,-0.0002845311537384987,-0.00040657399222254753,-0.000996410846710205,0.00046119559556245804,-8.710272959433496e-05,0.0021603184286504984,0.050094537,60.670406,Clouds
134717.999,-0.00045161042362451553,-0.00024284422397613525,-0.001957535743713379,0.0005742157809436321,0.00031107509857974946,-0.002525113523006439,0.04865875,60.670406,Clouds
134718.029,-0.00010745134204626083,0.00036644982174038887,-0.001179039478302002,0.002926599234342575,0.0017187208868563175,-0.0015719470102339983,0.04790113,60.670406,Clouds
134718.059,0.0003382563591003418,0.0003025527112185955,-0.0012399554252624512,-0.001498217461630702,-0.00034558388870209455,0.0026302123442292213,0.046930805,60.670406,Clouds
134718.088,0.0004983209073543549,0.0003329487517476082,-0.0018045902252197266,0.0006003107409924269,-0.00037849400541745126,-0.001916567562147975,0.07928369,60.670406,Clouds
134718.119,0.0002909563481807709,2.3708678781986237e-05,-0.0007672905921936035,-0.0006303926929831505,-0.0015062420861795545,-0.0007800117018632591,0.073672295,60.670406,Clouds
134718.148,5.3904950618743896e-05,-0.0003148196265101433,-0.0025066137313842773,-0.0002917067613452673,-0.0015206621028482914,-0.0013688199687749147,0.06575769,60.670406,Clouds
134718.178,0.0004082759842276573,-0.0008002221584320068,-0.0023389458656311035,0.0005992737133055925,-0.0005157177802175283,0.0012277518399059772,0.062275898,60.670406,Clouds
134718.208,0.0009967861697077751,1.3460405170917511e-05,-0.0029648542404174805,-0.0015769780147820711,-0.00026958039961755276,0.001843294478021562,0.085444316,60.670406,Clouds
134718.238,6.413739174604416e-05,0.0002089296467602253,-0.0009658336639404297,9.520282037556171e-05,0.00019204203272238374,0.0011121418792754412,0.074248895,60.670406,Clouds
134718.267,-9.575579315423965e-05,0.0001587909646332264,-0.00037097930908203125,-0.00010901247151196003,-0.0003848401247523725,0.0007258612895384431,0.08557543,60.670406,Clouds
134718.297,0.001416861079633236,0.00022871093824505806,-0.0008130669593811035,0.0010561172384768724,-0.0015269204741343856,-0.003435721853747964,0.07666233,60.670406,Clouds
134718.327,0.0007978342473506927,0.00028729066252708435,-0.001896202564239502,-0.0016674748621881008,0.0006970020476728678,0.0006311099277809262,0.07474142,60.670406,Clouds
134718.357,-0.0001922929659485817,-0.00028055207803845406,-0.002369523048400879,0.0007860690820962191,0.001053385203704238,-0.0011511275079101324,0.069703914,60.670406,Clouds
134718.387,-0.0006354358047246933,-0.00048082135617733,-0.0017899274826049805,0.0018984591588377953,4.119974619243294e-06,0.00046985779772512615,0.06384921,60.670406,Clouds
134718.417,9.86289232969284e-05,-0.0005509238690137863,-0.0018513202667236328,0.0011695260182023048,0.0015161293558776379,-0.00017237692372873425,0.061258417,60.670406,Clouds
134718.446,-0.0008065216243267059,0.0009559360332787037,-0.001439511775970459,-0.0001613146159797907,0.0015132920816540718,-0.002561824396252632,0.056991365,60.670406,Clouds
134718.476,-0.0003138808533549309,-0.0003708857111632824,-0.0020805001258850098,0.0018335375934839249,0.0018375369254499674,-0.0005369305144995451,0.056200985,60.670406,Clouds
134718.506,0.0012845341116189957,0.0012084459885954857,-0.0008903145790100098,0.002053740667179227,0.001490917638875544,0.003773619420826435,0.054012895,60.670406,Clouds
134718.536,-0.0006815651431679726,0.00029609864577651024,-0.0023857951164245605,-0.0003042975440621376,0.002526015043258667,-0.001113006379455328,0.064056225,57.402966,Clouds
134718.566,-0.00040585268288850784,0.0002787844277918339,-0.0008295178413391113,0.00032822717912495136,0.0008164913160726428,6.406311877071857e-05,0.06091824,57.402966,Clouds
134718.596,0.001249627210199833,0.00037117255851626396,-0.002340078353881836,0.000758554320782423,5.2654475439339876e-05,-0.0008916844963096082,0.05444573,57.402966,Clouds
134718.625,0.0015880241990089417,0.0001080627553164959,-0.001271963119506836,0.0028602657839655876,3.3462129067629576e-05,0.00137044966686517,0.049461145,57.402966,Clouds
134718.655,-0.0008882768452167511,0.0002041524276137352,-0.0006764531135559082,-0.0010212950874119997,0.000739198352675885,0.0022321988362818956,0.045779597,57.402966,Clouds
134718.685,-0.000620412640273571,0.0001417580060660839,-0.002217531204223633,0.000501976115629077,0.002022758824750781,0.0003892935928888619,0.043037757,57.402966,Clouds
134718.715,0.0006386889144778252,6.814533844590187e-05,-0.0014243125915527344,0.0007986165583133698,0.0021007158793509007,0.0002442569239065051,0.04166143,57.402966,Clouds
134718.745,0.00120449997484684,-0.0003995373845100403,-0.0003712773323059082,-0.0008714678697288036,1.4809367712587118e-05,-0.0013293882366269827,0.037750423,57.402966,Clouds
134718.775,-0.0005725016817450523,-0.0009530074894428253,-0.0024619698524475098,-0.00020701857283711433,0.00045630516251549125,-0.0005977656110189855,0.037401803,57.402966,Clouds
134718.804,0.00018289312720298767,-0.00011124135926365852,-0.0020956993103027344,-0.0014895356725901365,-5.0245078455191106e-05,0.0007775783888064325,0.034906507,57.402966,Clouds
134718.834,0.0009650308638811111,0.0004962626844644547,-0.002386033535003662,0.00020111259073019028,-0.001175710349343717,-0.00013535958714783192,0.030984469,57.402966,Clouds
134718.864,-6.53611496090889e-05,2.2621359676122665e-05,-0.0014857649803161621,-3.0719442293047905e-05,0.0032905617263168097,6.42979284748435e-05,0.030429794,57.402966,Clouds
134718.894,1.238752156496048e-05,0.00039842864498496056,-0.0016385912895202637,-0.00167493661865592,0.0023673002142459154,-0.0010537933558225632,0.027574364,57.402966,Clouds
134718.924,0.00012092385441064835,0.00028848694637417793,-0.0017606019973754883,-0.00014665722846984863,-0.00019604642875492573,-0.0029091101605445147,0.026423141,57.402966,Clouds
134718.954,-7.359124720096588e-05,-3.954488784074783e-05,-0.0016078948974609375,-0.00032500317320227623,0.0021338548976927996,0.0008579438435845077,0.024302663,57.402966,Clouds
134718.983,9.552109986543655e-05,0.00029263366013765335,-0.0019592642784118652,-0.0007569496519863605,0.0013999303337186575,0.002032053889706731,0.021586893,57.402966,Clouds
134719.013,0.00021059531718492508,0.00018241442739963531,-0.0023713111877441406,0.002070491435006261,-0.00024652254069224,0.00010456173913553357,0.032801572,57.402966,Clouds
134719.043,0.000719740055501461,-0.0003795609809458256,-0.0011506080627441406,0.0002800405491143465,-0.0007582177058793604,-0.0016238405369222164,0.03520996,57.402966,Clouds
134719.073,0.0009293686598539352,0.00021811900660395622,-0.0010131597518920898,0.00041099730879068375,-0.0011651787208393216,0.0023292312398552895,0.033544846,57.402966,Clouds
134719.103,-0.0007637282833456993,0.000505159143358469,-0.0017762184143066406,0.0011664996854960918,-0.001638765330426395,0.002397656673565507,0.03212385,57.402966,Clouds
134719.133,0.00025886110961437225,0.0006449338980019093,-0.0003879666328430176,-0.0005051218904554844,0.0005801469669677317,-0.0006727045401930809,0.05576543,57.402966,Clouds
134719.162,0.00064825639128685,9.881332516670227e-05,-0.0014867782592773438,-0.0001694501843303442,0.00013111665612086654,-0.0005495926016010344,0.052529074,60.152958,Clouds
134719.192,0.00022053252905607224,0.00023316917940974236,-0.0020972490310668945,0.0028889316599816084,-0.003711189841851592,0.00040753043140284717,0.044065688,60.152958,Clouds
134719.222,0.0006581349298357964,0.0001467820256948471,-0.002494215965270996,-0.0007558178622275591,0.0008961901185102761,-0.0007935682660900056,0.040337455,60.152958,Clouds
134719.252,0.0008796760812401772,5.082041025161743e-05,-0.0015175342559814453,0.002170349471271038,-0.0006784942233934999,0.0019388101063668728,0.03871531,60.152958,Clouds
134719.282,0.0005863402038812637,-0.0005306657403707504,-0.0005868673324584961,0.00169698940590024,0.0010810084640979767,-0.0009300499223172665,0.03479955,60.152958,Clouds
134719.312,-0.0003530578687787056,0.0004804423078894615,-0.0006636977195739746,0.0013541106600314379,-9.278517245547846e-05,0.0009001813596114516,0.03226935,60.152958,Clouds
134719.341,0.0008532991632819176,3.178417682647705e-05,-0.0025864839553833008,0.0002779364585876465,0.002505859127268195,0.0010432081762701273,0.027885567,60.152958,Clouds
134719.371,0.0012475568801164627,-0.00016048410907387733,-0.0013203024864196777,0.003122561378404498,-0.0016580969095230103,-0.00027551507810130715,0.025738373,60.152958,Clouds
134719.401,-0.0010284222662448883,0.0007780911400914192,-0.0008928775787353516,-0.0010726556647568941,-0.0011423868127167225,-0.002548652933910489,0.023902869,60.152958,Clouds
134719.431,-0.0006392495706677437,-0.0002750074490904808,-0.0024948716163635254,-0.0009149240795522928,-0.0008717279997654259,0.000373838993255049,0.020733485,60.152958,Clouds
134719.461,0.0004693455994129181,-7.025105878710747e-05,-0.0024799704551696777,-0.0005848982837051153,0.0012711255112662911,-0.0009111898252740502,0.02955291,60.152958,Clouds
134719.491,0.0003177095204591751,0.00030718836933374405,-0.0016255974769592285,0.00010544760152697563,-0.0004750332736875862,-0.001284552738070488,0.037703596,60.152958,Clouds
134719.520,-0.0007728328928351402,0.00027440767735242844,-0.0021288394927978516,-0.0029709062073379755,-0.0024795469362288713,0.001522222999483347,0.07368995,60.152958,Clouds
134719.550,-0.0002298504114151001,0.00028957612812519073,-0.0015029311180114746,-7.168971933424473e-05,-0.002088940469548106,-0.0016260226257145405,0.06870181,60.152958,Clouds
134719.580,0.0008264752104878426,-0.0005550370551645756,-0.001654982566833496,-0.0015878344420343637,-9.499895531916991e-05,0.0006138876196928322,0.0591055,60.152958,Clouds
134719.610,4.982016980648041e-05,-0.000653301365673542,-0.0010594725608825684,0.0011116745881736279,-0.0011805255198851228,-0.0005201793392188847,0.054301552,60.152958,Clouds
134719.640,-0.0006203390657901764,-0.00024212338030338287,-0.0012427568435668945,0.0007841382175683975,-4.470715066418052e-05,-0.0006493546534329653,0.045951027,60.152958,Clouds
134719.670,0.00034981127828359604,0.0006208238191902637,-0.0019144415855407715,-7.49856699258089e-05,-0.000636742333881557,0.00026478327345103025,0.041883446,60.152958,Clouds
134719.699,-9.899213910102844e-05,-0.00026886584237217903,-0.00160902738571167,0.002157985232770443,-0.002091091824695468,-0.00048366759438067675,0.038817145,60.152958,Clouds
134719.729,-0.000676463358104229,-0.0003606989048421383,-0.0014104843139648438,-0.002660559955984354,-0.0008992761722765863,0.0029356637969613075,0.033145886,60.152958,Clouds
134719.759,0.0005980310961604118,7.551256567239761e-05,-0.0011358857154846191,-0.0007107127457857132,0.001024475903250277,0.0007285084575414658,0.03088073,60.152958,Clouds
134719.789,0.000844939611852169,0.0007256027311086655,-0.0023717880249023438,-0.0005975042004138231,0.0008486881270073354,-0.0009638837655074894,0.026804775,60.70053,Clouds
134719.819,-0.0008323835209012032,0.00037623243406414986,-0.00153273344039917,-0.0007575829513370991,0.0011354510206729174,0.000152816588524729,0.02468343,60.70053,Clouds
134719.849,-0.0005954643711447716,0.000569500494748354,-0.0001596212387084961,0.002706915605813265,0.0009216782636940479,0.0015756674110889435,0.023286024,60.70053,Clouds
134719.878,0.00035229045897722244,-0.0002539423294365406,-0.0011668205261230469,-0.0006448994390666485,-0.0016282428987324238,-0.0016991603188216686,0.023267126,60.70053,Clouds
134719.908,-0.0006309393793344498,0.0007009198889136314,-0.002006351947784424,0.0003733220510184765,-0.0017178914276883006,0.0014610025100409985,0.022741603,60.70053,Clouds
134719.938,-0.0016676252707839012,0.0005416339263319969,-0.0018687844276428223,-0.0018580832984298468,-0.0013655500952154398,0.0019606442656368017,0.090992674,60.70053,Clouds
134719.968,-0.0007294714450836182,0.00020692311227321625,-0.0013805031776428223,-0.0012507785577327013,-0.0017013992182910442,-0.0001124216360040009,0.085294254,60.70053,Clouds
134719.998,0.0012892913073301315,0.0005871406756341457,-0.002616405487060547,-0.00034987786784768105,-0.0011721294140443206,-0.0016715206438675523,0.09523189,60.70053,Clouds
134720.028,0.0005790796130895615,0.00038088392466306686,-0.0034402012825012207,0.00013167411088943481,0.0009519512532278895,0.0012306161224842072,0.09206345,60.70053,Clouds
134720.057,-0.0005457084625959396,0.0004447326064109802,-0.0005865097045898438,0.0015172874554991722,-0.00018803509010467678,-0.00020402274094522,0.086203605,60.70053,Clouds
134720.087,0.0004033055156469345,-0.00010591186583042145,-0.0019446015357971191,0.0021977489814162254,-0.0006892463425174356,0.00020964659051969647,0.08143466,60.70053,Clouds
134720.117,0.0006168736144900322,-0.000503916759043932,-0.0022197365760803223,0.0007448983378708363,-0.00042340788058936596,0.0007619584212079644,0.10522436,60.70053,Clouds
134720.147,-0.0016348594799637794,0.0003959392197430134,-0.0011669397354125977,-0.001432275166735053,-0.00031862244941294193,-0.0011577063705772161,0.103306375,60.70053,Clouds
134720.177,0.0002596871927380562,0.0011227987706661224,-0.0019603371620178223,0.0006907260976731777,0.00017651673988439143,0.0005684529896825552,0.096061856,60.70053,Clouds
134720.207,0.0008184434846043587,3.3585820347070694e-05,-0.0022349953651428223,-0.00030888826586306095,0.0009550651302561164,0.001398713793605566,0.0906269,60.70053,Clouds
134720.236,-0.0004305560141801834,0.0006315694190561771,-0.0019906163215637207,0.0017452030442655087,0.00022940643248148263,0.0004447647661436349,0.249654,60.70053,Clouds
134720.266,-0.0002659754827618599,0.00010794494301080704,-0.00028198957443237305,-0.000962559599429369,-0.00025036322767846286,0.0009131655097007751,0.22486682,60.70053,Clouds
134720.296,0.0001506507396697998,0.00023272493854165077,-0.002006351947784424,0.00027597183361649513,0.0003655479522421956,0.00011903996346518397,0.202868,60.70053,Clouds
134720.326,0.000527476891875267,-0.00029321853071451187,-0.0029828548431396484,-0.002782005351036787,0.0002764469536487013,-0.002814133418723941,0.16428448,60.70053,Clouds
134720.356,-3.960542380809784e-05,-5.131959915161133e-05,-0.0006327629089355469,-0.0019515568856149912,-0.00015639646153431386,0.0006094425334595144,0.14972803,60.70053,Clouds
134720.385,-8.947774767875671e-05,-0.0004062051884829998,-0.00122755765914917,0.00044934405013918877,-3.262133395764977e-05,0.0012091642711311579,0.130171,60.70053,Clouds
134720.415,2.2086314857006073e-05,0.0004962892271578312,-0.00154799222946167,0.005096895154565573,0.000538441410753876,-2.4732202291488647e-05,0.17827973,60.70053,Clouds
134720.445,0.00045179668813943863,0.0007308111526072025,-0.0021585822105407715,-0.0010850748512893915,0.0002604139444883913,0.0009630412678234279,0.16636163,60.918674,Clouds
134720.475,-0.00021954532712697983,-0.0004961513914167881,-0.0019599199295043945,0.000528309028595686,-0.001280053867958486,-0.0003297008224762976,0.15428378,60.918674,Clouds
134720.505,-0.00012781750410795212,-0.0003247670829296112,-0.0009984970092773438,0.0037097549065947533,-0.002426184481009841,0.0014076456427574158,0.15167634,60.918674,Clouds
134720.535,-0.0007394934073090553,-0.00012856535613536835,-0.0012426972389221191,-0.0008422303944826126,0.0009585554362274706,0.0006390894413925707,0.14571628,60.918674,Clouds
134720.564,0.00027862656861543655,0.0006293300539255142,-0.002432882785797119,-0.002139398828148842,0.0008038783562369645,0.0006800718838348985,0.12567006,60.918674,Clouds
134720.594,-0.00042074359953403473,4.9165450036525726e-05,-0.0021126270294189453,0.00048078130930662155,0.0005455880309455097,0.0006498123402707279,0.11778678,60.918674,Clouds
134720.624,0.00038927048444747925,0.0008057868108153343,-0.0018079876899719238,-0.000786633463576436,0.00216072634793818,0.003215187694877386,0.19499458,60.918674,Clouds
134720.654,-0.0010738084092736244,9.573111310601234e-05,-0.00196075439453125,-0.0009069293737411499,-0.00015873450320214033,-0.001705744187347591,0.19470523,60.918674,Clouds
134720.684,-0.0001861024647951126,8.186744526028633e-05,-0.0011826753616333008,0.00038800016045570374,0.0010752008529379964,-0.0011930535547435284,0.18881565,60.918674,Clouds
134720.714,5.111750215291977e-05,-0.000284592155367136,-0.0021897554397583008,-0.0011605739127844572,-0.0008471842738799751,-0.00186874158680439,0.1769532,60.918674,Clouds
134720.743,-0.0007714461535215378,-0.00027440814301371574,-0.0020983219146728516,0.0058058821596205235,0.0009318387601524591,-0.000421578879468143,0.17278545,60.918674,Clouds
134720.773,-0.0001643924042582512,0.0003640931099653244,-0.0017932653427124023,0.0028033885173499584,0.0005349420243874192,-8.910184260457754e-05,0.15877457,60.918674,Clouds
134720.803,-0.0007264427840709686,-0.0005789645947515965,-0.0033951401710510254,0.0013240636326372623,-0.0002802004455588758,-0.0003778529353439808,0.14422184,60.918674,Clouds
134720.833,-6.34416937828064e-06,-0.0007165148854255676,-0.0021134018898010254,0.0005936236120760441,-0.0005160122527740896,-0.0002935368684120476,0.1290575,60.918674,Clouds
134720.863,0.00012944266200065613,3.6703888326883316e-05,-0.0019150972366333008,0.0018699532374739647,0.0012256944319233298,0.0024382355622947216,0.10361368,60.918674,Clouds
134720.893,0.00016147084534168243,0.0005740690976381302,-0.0022050142288208008,-0.0009547995869070292,0.0003714587655849755,-8.693418931216002e-05,0.093983926,60.918674,Clouds
134720.923,0.0006984090432524681,0.0003291652537882328,-0.001609504222869873,-0.0006989443209022284,0.0016344852047041059,0.00018333859043195844,0.07636771,60.918674,Clouds
134720.952,-0.000981522724032402,0.0003696158528327942,-0.0022200345993041992,0.0015422143042087555,-0.002238456392660737,0.0005371109000407159,0.0688027,60.918674,Clouds
134720.982,-0.0009509725496172905,0.00035596080124378204,-0.0016858577728271484,0.0004452536813914776,0.0004598020459525287,-0.0005962123395875096,0.062502824,60.918674,Clouds
134721.012,-0.000280831940472126,0.0003583477810025215,-0.002112865447998047,-0.0004546188283711672,0.000328244233969599,0.0022150170989334583,0.05235511,60.918674,Clouds
134721.042,-0.00012942031025886536,0.0003482634201645851,-0.0026618242263793945,-0.0014263871125876904,0.0013824085472151637,0.0006512842955999076,0.04907983,60.918674,Clouds
134721.072,9.783543646335602e-05,-0.00020622322335839272,-0.0027531981468200684,0.00026753824204206467,0.0021467884071171284,-0.0007737339474260807,0.040935613,60.795425,Clouds
134721.101,-4.7713518142700195e-05,-0.00016947509720921516,-0.0022191405296325684,-0.0007941715884953737,0.0012193829752504826,0.0006748008891008794,0.03729321,60.795425,Clouds
134721.131,0.0004222169518470764,0.0002617631107568741,-0.0012576580047607422,-0.0004204085562378168,0.0005097266985103488,0.0004889704287052155,0.034445833,60.795425,Clouds
134721.161,-0.0009997617453336716,-0.0005497452802956104,-0.0017150640487670898,0.0008313367143273354,0.002121510449796915,0.00028920313343405724,0.049223572,60.795425,Clouds
134721.191,0.0005034739151597023,-0.0009164209477603436,-0.0011501908302307129,0.0003682216629385948,-0.0001781652244972065,0.00014060339890420437,0.055844273,60.795425,Clouds
134721.221,-6.377417594194412e-05,-7.420266047120094e-05,-0.0017145872116088867,-0.00018023373559117317,0.0007439216133207083,-0.0008847257122397423,0.11904607,60.795425,Clouds
134721.250,-3.19434329867363e-05,4.893215373158455e-05,-0.0018366575241088867,-0.001154472352936864,0.0007462553912773728,0.0023242023307830095,0.115697116,60.795425,Clouds
134721.280,-0.00023159105330705643,-0.0007412629202008247,-0.0019586682319641113,-0.00045090983621776104,0.0013867327943444252,0.0011547754984349012,0.11374758,60.795425,Clouds
134721.310,-0.0003429725766181946,-0.0010604518465697765,-0.002431929111480713,0.0004239198751747608,0.001213806215673685,-0.0012467396445572376,0.12647615,60.795425,Clouds
134721.340,-0.0010897209867835045,-2.3000407963991165e-05,-0.0017762184143066406,-0.002782359253615141,0.002507055876776576,0.0003255494520999491,0.16026181,60.795425,Clouds
134721.370,-3.5744160413742065e-05,0.0005208747461438179,-0.0018069744110107422,0.0008464152924716473,0.001232437789440155,-0.0010734624229371548,0.15085292,60.795425,Clouds
134721.400,-3.194157034158707e-05,-7.180497050285339e-07,-0.0021886825561523438,0.001222081482410431,0.0020245318301022053,0.0017784463707357645,0.14395991,60.795425,Clouds
134721.430,2.1182000637054443e-05,8.049141615629196e-05,-0.001898646354675293,-0.0013169918674975634,-0.0004830880498047918,-0.0007518006605096161,0.1430963,60.795425,Clouds
134721.459,-0.00012032315135002136,0.000264790840446949,-0.0022495388984680176,-0.00165172154083848,0.0006353839999064803,-0.001013483153656125,0.1326882,60.795425,Clouds
134721.489,0.0004609515890479088,-0.00031284382566809654,-0.0019139647483825684,-0.0022262386046350002,-0.0023709021043032408,-0.0008908374002203345,0.1293228,60.795425,Clouds
134721.519,9.740237146615982e-05,7.956568151712418e-05,-0.002371668815612793,0.0017669186927378178,0.0003305722202640027,0.0016178475925698876,0.17726554,60.795425,Clouds
134721.549,5.4745934903621674e-05,-0.0003333832137286663,-0.002158045768737793,0.0017769825644791126,-0.0008138254634104669,0.0015589897520840168,0.1724364,60.795425,Clouds
134721.579,0.00013227574527263641,-3.009941428899765e-05,-0.0026004910469055176,-0.001953447237610817,-0.00023377654724754393,-0.0006230358849279583,0.17501077,60.795425,Clouds
134721.609,-2.478901296854019e-05,-0.00016858382150530815,-0.0020357370376586914,-0.0018435637466609478,0.00029460107907652855,-0.0008294841391034424,0.24826689,60.795425,Clouds
134721.638,-0.0010973457247018814,0.00010041939094662666,-0.002203226089477539,0.0002828766591846943,-0.002612017560750246,9.94600122794509e-06,0.23509634,60.795425,Clouds
134721.668,-0.00102195143699646,-8.447561413049698e-05,-0.0011653900146484375,0.000422727782279253,1.9792438251897693e-05,-0.0015284053515642881,0.2211048,60.795425,Clouds
134721.698,0.0010468438267707825,-0.0006190361455082893,-0.002477884292602539,0.0005569728091359138,0.0004153608751948923,0.0009367387392558157,0.21152219,60.514755,Clouds
134721.728,-0.000895320437848568,-0.00034827645868062973,-0.0029206275939941406,-4.921061918139458e-05,-0.00011093212378909811,-0.00044008641270920634,0.20088187,60.514755,Clouds
134721.758,-0.0008239839226007462,-6.14863820374012e-05,-0.0013794302940368652,0.0014660726301372051,0.0011342879151925445,0.0006323512643575668,0.1805679,60.514755,Clouds
134721.788,-0.00034970883280038834,-0.0003375755622982979,-0.002661406993865967,-0.00015555834397673607,-0.00017261521134059876,-0.0005862395046278834,0.17435011,60.514755,Clouds
134721.817,-0.000739196315407753,-0.0008180602453649044,-0.003668367862701416,0.0002865702845156193,1.1926822480745614e-06,0.0016557670896872878,0.16277309,60.514755,Clouds
134721.847,-0.0010344311594963074,-0.0006172386929392815,-0.0008147358894348145,-0.00011035474017262459,-0.00028015434509143233,6.223778473213315e-05,0.15022424,60.514755,Clouds
134721.877,0.00024730153381824493,3.626476973295212e-05,-0.0011350512504577637,9.79844480752945e-05,0.00042990088695660233,0.00241360766813159,0.14464103,60.514755,Clouds
134721.907,0.0006428314372897148,-1.7315149307250977e-05,-0.0015167593955993652,0.0014602718874812126,-0.002119334414601326,-0.002271501114591956,0.12830459,60.514755,Clouds
134721.937,-0.0011621080338954926,-0.0003005051985383034,-0.0025392770767211914,-0.0012054969556629658,-0.0006751164328306913,0.0022477246820926666,0.11795633,60.514755,Clouds
134721.966,-0.0004838937893509865,2.2124499082565308e-05,-0.002356231212615967,0.0006032292731106281,-0.0004117103526368737,-0.0018199104815721512,0.096131675,60.514755,Clouds
134721.996,-0.00017540156841278076,-0.00023836689069867134,-0.0027378201484680176,0.0027005746960639954,-0.0008562874863855541,-0.00044684670865535736,0.08770299,60.514755,Clouds
134722.026,0.0006319321691989899,-9.126728400588036e-05,-0.0025850534439086914,-0.0020216526463627815,-0.0015190732665359974,-0.0017655981937423348,0.07998343,60.514755,Clouds
134722.056,-0.00027909036725759506,0.00010858429595828056,-0.0021582841873168945,-0.002415768103674054,0.00030318720382638276,8.715206058695912e-05,0.066280074,60.514755,Clouds
134722.086,-0.0008911862969398499,-0.0001650555059313774,-0.0017771124839782715,0.0017473697662353516,-0.00036271411227062345,-0.0010062761139124632,0.06156962,60.514755,Clouds
134722.116,-3.964640200138092e-06,-0.00029555801302194595,-0.0024332404136657715,6.1588361859321594e-06,-0.0014080998953431845,-0.0004324815818108618,0.05165565,60.514755,Clouds
134722.146,0.0011135423555970192,-0.0007100068032741547,-0.0015631914138793945,-0.0016368816141039133,-6.0450402088463306e-05,-0.0007495830068364739,0.047274813,60.514755,Clouds
134722.175,-0.0005858233198523521,0.0006511150859296322,-0.0033634305000305176,-0.0005307684186846018,-0.002214808715507388,0.0006419636774808168,0.043487847,60.514755,Clouds
134722.205,0.00029436778277158737,-0.00036221276968717575,-0.0018987059593200684,-1.3508833944797516e-06,-0.0012347190640866756,0.0015078067081049085,0.036830634,60.514755,Clouds
134722.235,0.0004036650061607361,0.00032615475356578827,-0.0020362138748168945,0.00018346868455410004,0.001221905811689794,-0.000683052116073668,0.033875912,60.514755,Clouds
134722.265,0.00012789014726877213,0.00034155650064349174,-0.0018990635871887207,0.0023396071046590805,0.0002777359914034605,0.000962068559601903,0.050900247,60.514755,Clouds
134722.295,-0.0006764931604266167,9.667268022894859e-05,-0.0022502541542053223,0.0004818923771381378,-0.0011186690535396338,-0.002057156292721629,0.11050182,60.514755,Clouds
134722.325,-0.00023461226373910904,-0.00017430773004889488,-0.0022806525230407715,0.002544973511248827,-0.0011732116108760238,-0.0006939507438801229,0.20897578,60.59801,Clouds
134722.355,-0.00030543189495801926,0.0005128253251314163,-0.00209730863571167,0.001443084329366684,-0.0016735149547457695,0.00016376457642763853,0.19080697,60.59801,Clouds
134722.384,-0.0006637685000896454,0.00035328231751918793,-0.002540111541748047,0.0006139138713479042,-0.001420327927917242,-0.00011002359678968787,0.17676494,60.59801,Clouds
134722.414,-0.00021203886717557907,-0.00010228157043457031,-0.0005869269371032715,-0.00021092873066663742,-0.0014711676631122828,-0.002956157783046365,0.14371143,60.59801,Clouds
134722.444,-0.00032831262797117233,-0.0001771794632077217,-0.0024024248123168945,0.000634356401860714,-0.00039740779902786016,0.003108605742454529,0.13033298,60.59801,Clouds
134722.474,-0.0005827425047755241,7.988885045051575e-05,-0.0021889805793762207,-3.2724346965551376e-05,-0.002143846359103918,-0.0016233485657721758,0.11779434,60.59801,Clouds
134722.503,-0.00023541972041130066,0.00027171941474080086,-0.0013495087623596191,2.026231959462166e-05,-0.0016344663454219699,-0.0021024770103394985,0.101089396,60.59801,Clouds
134722.533,0.00021256320178508759,-0.0007509421557188034,-0.0021125078201293945,-0.0023765740916132927,-0.0008144667954184115,-0.0014013401232659817,0.09709264,60.59801,Clouds
134722.563,0.0008765468373894691,-0.0005621649324893951,-0.0028754472732543945,-0.00016797753050923347,-0.0022829119116067886,0.0008551337523385882,0.10347859,60.59801,Clouds
134722.593,-0.0006399787962436676,8.47475603222847e-05,-0.00182265043258667,-0.0009442968294024467,-0.0035251290537416935,-0.00036035390803590417,0.09665299,60.59801,Clouds
134722.623,5.0586648285388947e-05,0.0005089305341243744,-0.0020661354064941406,-0.0002873220946639776,0.0009709608275443316,-0.001309725921601057,0.08820556,60.59801,Clouds
134722.653,0.0009474530816078186,-0.0003830771893262863,-0.0021880269050598145,-0.0008496723603457212,0.00125605589710176,0.0013196452055126429,0.09042824,60.59801,Clouds
134722.682,-0.0003510061651468277,-0.00026032794266939163,-0.0020657777786254883,0.003080954309552908,-0.0022994133178144693,-0.000614068703725934,0.086039566,60.59801,Clouds
134722.712,-0.0004429435357451439,-0.0005267122760415077,-0.0006617903709411621,0.004369853530079126,-0.00018017062393482774,-0.001054159365594387,0.07616408,60.59801,Clouds
134722.742,0.0011273957788944244,-0.00023855501785874367,-0.0020200014114379883,0.0013285847380757332,0.00017958968237508088,0.0007783205946907401,0.07218585,60.59801,Clouds
134722.772,0.0009205713868141174,-0.00028647249564528465,-0.0016688108444213867,-0.0019282186403870583,-0.0006854935782030225,-0.000642783532384783,0.11391043,60.59801,Clouds
134722.802,0.0005026701837778091,0.00020300643518567085,-0.0023401379585266113,-7.262174040079117e-05,-2.271871198900044e-05,-0.0005839630030095577,0.12581311,60.59801,Clouds
134722.832,-0.0008434215560555458,-0.00021649524569511414,-0.0016229748725891113,-0.0004411870613694191,-0.0015991705004125834,-0.0007137603824958205,0.120088115,60.59801,Clouds
134722.862,0.0008165063336491585,0.00028223125264048576,-0.0023398995399475098,-0.0023831618018448353,-0.0013460353948175907,0.0012266284320503473,0.10555604,60.59801,Clouds
134722.891,6.375368684530258e-05,-0.0008959043771028519,-0.0002644658088684082,0.0011177253909409046,0.0003805950400419533,7.567391730844975e-05,0.10306222,60.59801,Clouds
134722.921,-0.0008532488718628883,0.0006344360299408436,-0.0012101531028747559,0.0018574772402644157,-0.0004932035226374865,0.0006975868600420654,0.100939475,60.59801,Clouds
134722.951,0.0008084317669272423,-0.00042052706703543663,-0.004506528377532959,-0.0007702917791903019,0.000357483746483922,-0.0022011955734342337,0.11271666,60.59801,Clouds
134722.981,-2.9017217457294464e-05,-0.0010704230517148972,-0.0007379651069641113,-0.0005515716038644314,0.0008182281744666398,0.0019141121301800013,0.10854784,60.572468,Clouds
134723.011,-0.0005014017224311829,0.0002659228630363941,-0.0013943910598754883,-0.0016014350112527609,-0.0003582026984076947,0.00038751025567762554,0.10127802,60.572468,Clouds
134723.040,-0.0011808844283223152,0.0011368775740265846,-0.0031949877738952637,-0.0003486950881779194,-0.0008647998329252005,-0.00021265429677441716,0.097666234,60.572468,Clouds
134723.070,-0.00042226072400808334,-0.0004713195376098156,-0.00374448299407959,-0.0009493879042565823,-0.0006657441845163703,-0.0006670598522759974,0.0897883,60.572468,Clouds
134723.100,0.000267895869910717,0.0002970960922539234,-0.00021958351135253906,-0.0007146552670747042,0.000748706515878439,8.91396775841713e-05,0.07844036,60.572468,Clouds
134723.130,-0.000425044447183609,0.0002284902147948742,-0.0024323463439941406,-0.00033015571534633636,0.002355942502617836,4.2241590563207865e-05,0.07419745,60.572468,Clouds
134723.160,-7.708370685577393e-05,0.0002983901649713516,-0.0025696754455566406,0.001350924838334322,0.0012271497398614883,-0.00018909614300355315,0.06451754,60.572468,Clouds
134723.190,-3.7454068660736084e-05,-0.0011008665896952152,-0.0017148256301879883,-0.0049064913764595985,-0.0007357437862083316,-0.001000711927190423,0.059805404,60.572468,Clouds
134723.220,0.00032674241811037064,-0.0002684555947780609,-0.0016230940818786621,-8.67331400513649e-05,-0.00010047283285530284,-0.00047588266897946596,0.05532988,60.572468,Clouds
134723.249,0.00029582157731056213,-0.0003448626957833767,-0.0018823742866516113,0.0005217650905251503,-0.000631230475846678,-9.7277807071805e-05,0.04619636,60.572468,Clouds
134723.279,-0.0004010256379842758,-0.0009914496913552284,-0.0018976926803588867,0.0015054401010274887,-0.00030761558446101844,0.0033017434179782867,0.04258813,60.572468,Clouds
134723.309,2.509821206331253e-05,-0.0005499157123267651,-0.0012873411178588867,-0.0006614115554839373,-0.0005956027889624238,-0.0002297527389600873,0.037046876,60.572468,Clouds
134723.339,0.00028957705944776535,-0.0003453460521996021,-0.0030573606491088867,-0.0010922073852270842,0.0017980566481128335,0.00196981243789196,0.034559954,60.572468,Clouds
134723.369,-0.0007873261347413063,-0.00031704409047961235,-0.0022486448287963867,-0.002154348883777857,0.0003326981677673757,0.00017223658505827188,0.03374577,60.572468,Clouds
134723.399,0.00014764908701181412,0.00022759055718779564,-0.0010584592819213867,-0.0003457828424870968,0.0010869334219023585,0.0013109907740727067,0.029187009,60.572468,Clouds
134723.428,0.00019680429250001907,-0.000761064700782299,-0.003057122230529785,-0.00316170253790915,0.0002223612682428211,-0.0015875137178227305,0.029818228,60.572468,Clouds
134723.458,-0.000649675726890564,-0.000473629217594862,-0.0002796053886413574,2.8191134333610535e-05,0.001401816844008863,0.002247199648991227,0.026884673,60.572468,Clouds
134723.488,-0.000445743091404438,-0.0007969452999532223,-0.002186894416809082,-0.0010278746485710144,0.00014570436906069517,0.0010582907125353813,0.02575631,60.572468,Clouds
134723.518,0.00030048470944166183,-0.00018297508358955383,-0.002050161361694336,-0.0015272095333784819,0.0011525320587679744,-0.00020600465359166265,0.040120933,60.572468,Clouds
134723.548,0.00017058849334716797,-0.0001650010235607624,-0.006734728813171387,-0.002455502049997449,-0.00010504377860343084,-0.0013680735137313604,0.0548253,60.572468,Clouds
134723.577,-0.0005190344527363777,-0.00025989534333348274,-0.0008141994476318359,-0.0008763174992054701,0.00013876573939342052,0.0011429418809711933,0.051066875,60.572468,Clouds
134723.607,-0.0014288229867815971,1.716380938887596e-05,0.00029975175857543945,4.362966865301132e-05,0.0011304114013910294,0.00014981965068727732,0.0502219,60.272804,Clouds
134723.637,-0.00039693433791399,-0.0003599058836698532,-0.0026143789291381836,-0.0012033795937895775,-0.0013864219654351473,0.0021771639585494995,0.04584316,60.272804,Clouds
134723.667,0.00014724768698215485,0.0004624919965863228,-0.003193974494934082,-0.001007182989269495,0.0013019002508372068,0.0002342902880627662,0.044406276,60.272804,Clouds
134723.696,-0.0004991590976715088,-0.00023702532052993774,-0.0017595291137695312,-0.002752042841166258,0.0010823775082826614,-0.0029245163314044476,0.039262723,60.272804,Clouds
134723.727,0.0009412765502929688,-0.0004994068294763565,-0.0027817487716674805,-0.0005683742929250002,0.003961822483688593,-0.0015156862791627645,0.036340553,60.272804,Clouds
134723.756,0.001483175903558731,2.8238166123628616e-05,-0.004292309284210205,-0.0011384016834199429,0.0005121763679198921,0.00017918337834998965,0.08438715,60.272804,Clouds
134723.786,-0.0005637137219309807,0.00014988798648118973,-0.0008593201637268066,0.0014910129830241203,0.002088915091007948,-0.002415068680420518,0.11044053,60.272804,Clouds
134723.816,-0.000865718349814415,0.0010701650753617287,7.134675979614258e-05,-6.338069215416908e-05,-0.0017636902630329132,0.0017032930627465248,0.11805531,60.272804,Clouds
134723.846,2.719089388847351e-05,0.00024226540699601173,-0.0029958486557006836,-0.0012123966589570045,-0.00027405249420553446,0.0021849917247891426,0.10983502,60.272804,Clouds
134723.876,0.0003210846334695816,4.678219556808472e-05,-0.0019582509994506836,0.000662089791148901,0.0021807318553328514,-0.0020517073571681976,0.10084315,60.272804,Clouds
134723.906,-0.0008866433054208755,-0.00032435962930321693,-0.0011342763900756836,0.0016147173009812832,0.0008500450057908893,-0.002273396821692586,0.08410593,60.272804,Clouds
134723.935,0.00033741164952516556,-0.00010495074093341827,-0.0022333264350891113,0.0009827804751694202,0.000669203232973814,-0.0008657779544591904,0.07580599,60.272804,Clouds
134723.965,0.000596148893237114,-1.863297075033188e-05,-0.002156972885131836,-0.000691886292770505,0.0012076012790203094,-0.0013938467018306255,0.06999625,60.272804,Clouds
134723.995,-0.000652015209197998,-0.00016458891332149506,-0.002996087074279785,-0.001561610260978341,0.0018603176577016711,0.0010709568159654737,0.058244202,60.272804,Clouds
134724.025,-0.001050671562552452,-0.0008548027835786343,-0.0016680359840393066,-0.0014318251051008701,-0.0005838889046572149,-0.0004330053343437612,0.05335015,60.272804,Clouds
134724.055,0.00020005367696285248,-0.00019593676552176476,-0.001316845417022705,-0.0012008189223706722,-0.002664176281541586,0.003100808709859848,0.044727407,60.272804,Clouds
134724.084,0.00044883042573928833,-0.00031771743670105934,-0.0025066137313842773,-0.0031587695702910423,-0.0011101843556389213,0.0002823166432790458,0.04144771,60.272804,Clouds
134724.114,-0.0004292977973818779,-0.0006846212781965733,-0.0013008713722229004,-0.001673577120527625,0.0006937185535207391,0.0003727342118509114,0.03877374,60.272804,Clouds
134724.144,7.550511509180069e-05,-9.742099791765213e-05,-0.001743316650390625,0.00456423731520772,-0.0019244960276409984,0.002598648425191641,0.032524988,60.272804,Clouds
134724.174,8.767470717430115e-06,-0.0004984969273209572,-0.002491295337677002,0.0008443859405815601,0.002062345389276743,-0.0005442494293674827,0.029956896,60.272804,Clouds
134724.204,-0.00014213379472494125,-0.0010737394914031029,-0.002399742603302002,-0.0007669166661798954,0.00011455931235104799,0.0002516789245419204,0.027217938,60.272804,Clouds
134724.234,-0.00046495720744132996,0.0005384753458201885,0.00022464990615844727,-0.0010761730372905731,0.0011796422768384218,0.0004319746803957969,0.024433883,58.81186,Clouds
134724.263,-0.0010715071111917496,-0.00016513606533408165,-0.0012553930282592773,-2.9550865292549133e-05,-0.0004349831724539399,0.0016697761602699757,0.02328118,58.81186,Clouds
134724.293,-0.0007895184680819511,-0.000609004870057106,-0.0034069418907165527,0.0013860566541552544,-0.0006858357228338718,-0.0029398526530712843,0.021604013,58.81186,Clouds
134724.323,-0.00011337548494338989,-0.0010578609071671963,-0.0012705326080322266,-0.0016941921785473824,0.004129054024815559,-8.450861787423491e-05,0.020678379,58.81186,Clouds
134724.353,0.00035275332629680634,-8.40439461171627e-05,-0.0011028647422790527,9.022234007716179e-05,-0.0010566390119493008,-0.0010943780653178692,0.01954068,58.81186,Clouds
134724.383,0.00037803128361701965,-0.0003789300099015236,-0.0011792182922363281,0.0004356028512120247,0.00202067825011909,0.0008473866619169712,0.018988375,58.81186,Clouds
134724.413,-0.0011814571917057037,0.00019759172573685646,-0.002476334571838379,-0.0032298127189278603,-0.0011263216147199273,-4.1494553443044424e-05,0.01864173,58.81186,Clouds
134724.443,-0.0006439145654439926,-0.00034352950751781464,-0.001789391040802002,-0.00034144148230552673,0.0002921799896284938,0.001464288798160851,0.044341575,58.81186,Clouds
134724.472,0.0006683897227048874,-0.00046624382957816124,-0.0012248754501342773,-0.0015379588585346937,-0.00020732646225951612,-0.0007832763949409127,0.041413605,58.81186,Clouds
134724.502,0.0002802610397338867,-0.00022780383005738258,-0.0027201175689697266,-0.002176593290641904,-0.0011914451606571674,-0.00047546857967972755,0.04300339,58.81186,Clouds
134724.532,-0.00018484797328710556,-0.00035476312041282654,-0.0020492076873779297,0.0035802735947072506,-0.0015134630957618356,-0.0007931599975563586,0.08309237,58.81186,Clouds
134724.562,-0.00045888684689998627,-0.0013051275163888931,-0.0010725855827331543,-0.0005082511343061924,-0.002528268611058593,-0.002684838604182005,0.08277476,58.81186,Clouds
134724.592,0.0004886360839009285,-0.00041163433343172073,-0.0015456080436706543,0.00018994277343153954,0.000748117221519351,-0.00016855919966474175,0.10165045,58.81186,Clouds
134724.622,-0.0005376767367124557,-0.000388104934245348,-0.003605782985687256,-0.00039607705548405647,-0.0005480698891915381,0.0012888257624581456,0.09694987,58.81186,Clouds
134724.651,-0.0010516494512557983,-0.0008424702100455761,-0.0024004578590393066,0.004196622874587774,-6.185822712723166e-05,0.001231929985806346,0.09588712,58.81186,Clouds
134724.681,0.000201469287276268,-0.00033820606768131256,-0.002003967761993408,0.0017634537070989609,0.0023974282667040825,0.0003471451054792851,0.08399899,58.81186,Clouds
134724.711,-0.00017349421977996826,-0.0004672473296523094,-0.001561582088470459,-0.00214874604716897,-0.00011914859351236373,-0.0006311453180387616,0.11356678,58.81186,Clouds
134724.741,0.00018278509378433228,-0.0008911676704883575,-0.003087282180786133,0.00022884365171194077,0.0013517166953533888,-0.0006444288301281631,0.19524379,58.81186,Clouds
134724.771,-0.0004421072080731392,0.0005813399329781532,-0.0001728534698486328,0.006646914407610893,-0.0017064297571778297,0.0006272956961765885,0.18948165,58.81186,Clouds
134724.801,0.0001338394358754158,0.00045404164120554924,-0.0035606026649475098,-0.00016433047130703926,-0.0005757110775448382,0.0011794862803071737,0.17118691,58.81186,Clouds
134724.830,0.00024041160941123962,-0.0010493556037545204,-0.002340078353881836,0.0013885251246392727,0.000434904737630859,-0.00045425351709127426,0.18875562,58.81186,Clouds
134724.860,-0.00024060625582933426,-0.0005708327516913414,-0.000523984432220459,0.0002800729125738144,-0.0007247849716804922,-0.0023039071820676327,0.17926033,60.21848,Clouds
134724.890,-0.00012547243386507034,-0.0004956535995006561,-0.0014246702194213867,0.0025690998882055283,-0.0006160516059026122,-0.000748680904507637,0.16046312,60.21848,Clouds
134724.920,0.0007998058572411537,-0.0005945446901023388,-0.0017908215522766113,-0.0029580018017441034,-0.001676115789450705,-0.0007526874542236328,0.14926074,60.21848,Clouds
134724.950,-0.0010647578164935112,-0.00010314304381608963,-0.0002497434616088867,0.0012021004222333431,0.00038374424912035465,0.0016625751741230488,0.14373538,60.21848,Clouds
134724.980,-4.579499363899231e-05,-0.0012020659632980824,-0.002721846103668213,0.00039843562990427017,-0.0009281960083171725,-0.0005234862910583615,0.13479929,60.21848,Clouds
134725.009,0.0004544612020254135,-0.0006652576848864555,-0.002233743667602539,-0.003424261696636677,0.00028216023929417133,0.0020538480021059513,0.1275916,60.21848,Clouds
134725.039,-0.0013815723359584808,0.00019166339188814163,-0.0023404955863952637,-0.000968697015196085,-0.0005610659718513489,0.0018020126735791564,0.15320031,60.21848,Clouds
134725.069,-0.0007840683683753014,-4.3120235204696655e-07,-0.000982046127319336,-0.002799918409436941,-0.0007783673936501145,-0.0005254124407656491,0.14143866,60.21848,Clouds
134725.099,0.0007566669955849648,-5.782861262559891e-05,-0.0024164915084838867,-0.0012132341507822275,-0.0013102584052830935,0.0006617602193728089,0.12976131,60.21848,Clouds
134725.128,-0.0009285295382142067,-0.0006906930357217789,-0.002782583236694336,-0.0002129911445081234,0.0005065592704340816,-0.0030182967893779278,0.11783625,60.21848,Clouds
134725.158,-0.0009540170431137085,-0.0010439036414027214,-0.002233564853668213,-0.0013636942021548748,0.0012117050355300307,-0.0014289501123130322,0.11257113,60.21848,Clouds
134725.188,0.0009012985974550247,-0.0007394109852612019,-0.0034239888191223145,0.002170736435800791,0.0005271134432405233,0.00025181687669828534,0.09816533,60.21848,Clouds
134725.218,-0.0006339987739920616,0.00025802943855524063,-0.003378152847290039,0.0003002951852977276,0.001609175349585712,-0.0014213774120435119,0.09201603,60.21848,Clouds
134725.248,-0.00022250227630138397,-0.0006292355246841908,-0.0017150044441223145,0.00021537486463785172,-0.0007531136507168412,0.0032016439363360405,0.08598154,60.21848,Clouds
134725.278,0.0005708904936909676,-0.0005885777063667774,-0.0027069449424743652,0.0001984545961022377,-0.00016474517178721726,0.000807997421361506,0.07379571,60.21848,Clouds
134725.308,0.000872545875608921,-0.0008080783300101757,-0.0035004615783691406,0.002417741809040308,0.0005248957313597202,-0.0008938004029914737,0.06829664,60.21848,Clouds
134725.337,-4.549603909254074e-05,-0.0016627749428153038,-0.0030576586723327637,3.578606992959976e-05,0.0006077620200812817,0.000215711013879627,0.057531167,60.21848,Clouds
134725.367,-0.00047957245260477066,-0.000346470158547163,-0.00029534101486206055,-0.0006957941222935915,-0.0007020169286988676,-0.0006858642445877194,0.25621557,60.21848,Clouds
134725.397,-1.1819414794445038e-05,0.0008087554015219212,-0.0010427236557006836,0.0011487132869660854,-0.0012670044088736176,0.0010668491013348103,0.23540261,60.21848,Clouds
134725.427,-2.5418587028980255e-05,-0.000500064343214035,-0.001958191394805908,0.002315671183168888,-0.0004807392251677811,0.0011372548760846257,0.19613037,60.21848,Clouds
134725.457,-0.0004612486809492111,-0.0001223948784172535,-0.0017749667167663574,3.517838194966316e-05,4.821637412533164e-05,5.2071583922952414e-05,0.17915592,60.21848,Clouds
134725.487,0.00021539907902479172,0.000210651196539402,-0.002171635627746582,-0.0013497311156243086,0.002467499813064933,-0.0011420967057347298,0.1641603,60.21848,Clouds
134725.517,0.0004572402685880661,-0.0004795100539922714,-0.0034685134887695312,0.00024098297581076622,0.0009439263958483934,0.0009622791549190879,0.15881613,59.712242,Clouds
134725.546,-0.00037271156907081604,-0.0006148894317448139,-0.0007979273796081543,-0.0003825563471764326,0.00016780709847807884,-0.00043352512875571847,0.15361354,59.712242,Clouds
134725.576,0.00024346448481082916,0.0002519381232559681,-0.001927018165588379,0.000158676877617836,-0.0009164614602923393,-0.0012463750317692757,0.17519738,59.712242,Clouds
134725.606,0.0007969290018081665,1.4288816601037979e-05,-0.0026746392250061035,-0.0005295549053698778,0.000610184099059552,-0.00036760291550308466,0.16247617,59.712242,Clouds
134725.636,-0.0001405961811542511,-0.00048599066212773323,-0.0036360621452331543,0.0013105003163218498,0.00016305311874020845,0.0008039931417442858,0.14259519,59.712242,Clouds
134725.666,-0.0004532942548394203,0.00041900575160980225,-0.002216815948486328,0.0009114816784858704,-0.0025092167779803276,-0.0024113208055496216,0.13195746,59.712242,Clouds
134725.696,-0.0008515436202287674,-0.00044735055416822433,-0.0018962621688842773,-0.0001652175560593605,-0.00022618795628659427,-0.002609977964311838,0.11988512,59.712242,Clouds
134725.725,-0.0004973039031028748,-7.514702156186104e-05,-0.002475917339324951,-0.0006661803927272558,0.001022309297695756,0.0013514815364032984,0.10647632,59.712242,Clouds
134725.755,0.00027710385620594025,-0.000790880061686039,-0.0035896897315979004,-0.00011690473183989525,0.00031965773086994886,-0.0008841933449730277,0.09808283,59.712242,Clouds
134725.785,4.8961490392684937e-05,0.00023255916312336922,-0.002079188823699951,0.0012485128827393055,0.00030604892526753247,-0.0007412664126604795,0.08524714,59.712242,Clouds
134725.815,-0.0007333029061555862,-0.00023705139756202698,-0.002460777759552002,0.002730869222432375,-0.0023281711619347334,-0.0002507535391487181,0.07812793,59.712242,Clouds
134725.845,1.6790814697742462e-05,-0.00040550995618104935,-0.0033918023109436035,0.0015632598660886288,0.00020670989761129022,-0.0014123078435659409,0.07082829,59.712242,Clouds
134725.874,0.0006762072443962097,-0.0005810307338833809,-0.002857804298400879,-0.001261041034013033,0.001458751386962831,-0.0019400999881327152,0.06747028,59.712242,Clouds
134725.904,-0.00034343358129262924,-0.0011364519596099854,-0.002613663673400879,-0.00016257306560873985,-0.0002507728058844805,-0.0006782204145565629,0.0663705,59.712242,Clouds
134725.934,-9.401515126228333e-05,0.00018214760348200798,-0.0005840659141540527,-0.002160889096558094,-0.0006378090474754572,-0.00028701871633529663,0.059067648,59.712242,Clouds
134725.964,0.000773504376411438,9.726965799927711e-05,-0.0020336508750915527,0.0016944142989814281,0.0018712625605985522,-0.001969665754586458,0.056247056,59.712242,Clouds
134725.994,0.00043398328125476837,-0.00029770098626613617,-0.0026137232780456543,0.0006342409178614616,-0.0007298551499843597,-0.001623425749130547,0.05168562,59.712242,Clouds
134726.024,0.00013529229909181595,-0.00046244310215115547,-0.0009198784828186035,0.0026018721982836723,-0.0006747734150849283,-0.002802362432703376,0.046956692,59.712242,Clouds
134726.053,-0.0017741071060299873,-0.0010249754413962364,-0.0008435845375061035,-0.001798937562853098,-0.001582851866260171,-0.0006653685122728348,0.055496328,59.712242,Clouds
134726.083,-0.0003456799313426018,-0.00014742929488420486,-0.0028882622718811035,-0.0013033272698521614,-0.00024213988217525184,-0.0006671851733699441,0.053232178,59.712242,Clouds
134726.113,0.00026966817677021027,-0.0008390704169869423,-0.0019118189811706543,0.0009423042647540569,0.0003188487607985735,0.000931496499106288,0.049898304,59.712242,Clouds
134726.143,0.00022549182176589966,-0.00028303172439336777,-0.0012711286544799805,0.0011634663678705692,-8.549843914806843e-05,0.00014290475519374013,0.046301577,59.712242,Clouds
134726.173,-0.0008408427238464355,0.00028289202600717545,-0.0016220808029174805,-0.000911385053768754,0.0015230257995426655,-0.0019002497429028153,0.042407643,58.505405,Clouds
134726.203,0.00023561343550682068,-0.0007683341391384602,-0.0021101832389831543,0.00020518619567155838,-0.0002664501953404397,-0.00099091324955225,0.07844579,58.505405,Clouds
134726.232,0.0007124682888388634,-0.0008293157443404198,-0.0024459362030029297,0.0002912944182753563,0.00024247205874416977,0.0001369063975289464,0.10653393,58.505405,Clouds
134726.262,0.0005138972774147987,-0.0011791693978011608,-0.0017895698547363281,-0.0009758416563272476,-0.0015460529830306768,-0.0002096531679853797,0.10093475,58.505405,Clouds
134726.292,-0.0014418326318264008,-6.6962093114852905e-06,-0.002399444580078125,-0.00012451224029064178,-0.0018288659630343318,-0.0011893664486706257,0.10065678,58.505405,Clouds
134726.322,0.0005009686574339867,-0.0006659817881882191,-0.0030251145362854004,0.0016414537094533443,0.001391169149428606,-0.0002276789746247232,0.08829061,58.505405,Clouds
134726.352,0.0007803076878190041,-0.001086836215108633,-0.0013158321380615234,-0.0025177286006510258,-0.0005545598105527461,0.001734649995341897,0.08599719,58.505405,Clouds
134726.382,0.0003667715936899185,-0.000505893025547266,-0.0016361474990844727,-0.000583569286391139,-0.0009554417338222265,0.0020792135037481785,0.08546501,58.505405,Clouds
134726.412,-0.00045336317270994186,-4.6988483518362045e-05,-0.001651465892791748,0.0008917269296944141,0.0009796960512176156,0.0009514795383438468,0.07891977,58.505405,Clouds
134726.441,-0.000561966560781002,-0.00014823442324995995,-0.002414703369140625,0.0011582421138882637,0.0010669060284271836,0.0023011781740933657,0.071673065,58.505405,Clouds
134726.471,-0.0005494328215718269,-0.00025455886498093605,-0.0032843351364135742,-0.0006222415249794722,-0.00020770223636645824,-0.0013860331382602453,0.06745552,58.505405,Clouds
134726.501,0.00017241667956113815,-0.0007691541686654091,-0.0030707120895385742,0.0028044204227626324,0.0011742364149540663,0.0010783083271235228,0.06500772,58.505405,Clouds
134726.531,0.0006531355902552605,-0.0009695962071418762,-0.002032935619354248,-0.0034672440961003304,0.0009753595222719014,0.00025061279302462935,0.06116933,58.505405,Clouds
134726.561,0.0004356391727924347,-0.0006386525928974152,-0.0012546181678771973,-0.0005553106311708689,0.00044935973710380495,0.0008485391736030579,0.05913291,58.505405,Clouds
134726.590,-9.741075336933136e-05,-0.0005678697489202023,-0.0020787715911865234,0.0019152113236486912,0.0016484336229041219,4.142464604228735e-05,0.09473333,58.505405,Clouds