Timestamp,AccelX,AccelY,AccelZ,GyroX,GyroY,GyroZ,AudioLevel,LightLevel,Weather
190104.222,-0.0025040386244654655,-0.0007396023720502853,4.220008850097656e-05,-0.0006559952162206173,0.0015609076945111156,-6.160966586321592e-05,0.0886397,16.216928,Clouds
190104.251,-0.001411990262567997,-6.394600495696068e-05,-0.0002625584602355957,0.0022522045765072107,-0.0006947135552763939,0.0027255527675151825,0.1473703,16.216928,Clouds
190104.281,-0.0023064203560352325,-0.0014421113301068544,0.0020111799240112305,0.0036359617952257395,-5.132161459187046e-05,0.0015087638748809695,0.22528785,16.216928,Clouds
190104.311,-0.001351645216345787,-0.0043522873893380165,-0.002611696720123291,-0.0005636450368911028,-0.0020011980086565018,-0.00018335244385525584,0.21337207,16.216928,Clouds
190104.341,-0.002448699437081814,0.00039800326339900494,0.0012025237083435059,-0.0014977649552747607,-0.0015465874457731843,0.0007534727337770164,0.19053017,16.216928,Clouds
190104.371,-0.0011057937517762184,-0.0031592026352882385,-0.004046499729156494,0.0001226624008268118,0.0010543274693191051,-0.0002812243765220046,0.18522675,16.216928,Clouds
190104.400,-0.0007438352331519127,-0.005103273317217827,0.003292977809906006,-0.0015222131041809916,-0.0008158207056112587,-0.0015956787392497063,0.1844702,16.216928,Clouds
190104.430,-0.0018451819196343422,0.000529182143509388,-0.001283884048461914,0.0015177975874394178,-0.0014700558967888355,0.0018424908630549908,0.20885316,16.216928,Clouds
190104.460,-0.0025040097534656525,-0.0007495342288166285,0.0009750127792358398,0.0012313739862293005,-0.0024487299378961325,-4.741927841678262e-05,0.20100434,16.216928,Clouds
190104.490,-0.0011469721794128418,-0.0054049720056355,-0.004670560359954834,0.0011869743466377258,0.001396058825775981,-0.000624010048341006,0.21044305,16.216928,Clouds
190104.520,-0.000428210012614727,-0.0023987307213246822,0.002409696578979492,0.0008577103726565838,-0.0020705119241029024,-0.0006390694761648774,0.28004873,16.216928,Clouds
190104.549,-0.0014989636838436127,-0.0009501846507191658,-0.002442657947540283,0.0005046084988862276,-6.559771281899884e-05,0.00045813151518814266,0.26547697,16.216928,Clouds
190104.579,-0.003403058275580406,-0.002249169396236539,-0.0008252859115600586,-0.0013189008459448814,5.476331716636196e-05,0.0007714747334830463,0.2327792,16.216928,Clouds
190104.609,-0.001403091475367546,-0.001299048773944378,-0.0014358162879943848,0.00029365718364715576,0.0011675696587190032,0.0012001409195363522,0.2171789,16.216928,Clouds
190104.639,-0.0013968413695693016,-0.0005253169219940901,0.0009750723838806152,-0.0005158223211765289,-0.0033039480913430452,0.0016885473160073161,0.18807372,16.216928,Clouds
190104.669,-0.000758233480155468,-0.0013438076712191105,-6.210803985595703e-05,0.0003550515975803137,-0.0011176990810781717,-0.0004269408527761698,0.18493888,16.216928,Clouds
190104.699,-0.0008064927533268929,-0.0038763335905969143,-0.0017707347869873047,0.00163163966499269,-0.0008219119044952095,0.001330664148554206,0.20946655,16.216928,Clouds
190104.728,-0.0029315128922462463,0.0006301482208073139,-0.0019083023071289062,-0.0025715467054396868,0.0012725552078336477,2.654525451362133e-05,0.19645713,16.216928,Clouds
190104.758,-0.002683069556951523,-0.0024614809080958366,-0.0013743042945861816,0.0004130224697291851,-0.001131717348471284,7.718024426139891e-05,0.2542852,16.216928,Clouds
190104.788,-0.0011538667604327202,-0.0017541393171995878,0.005278408527374268,0.003426971612498164,-0.004046856425702572,-0.0020096772350370884,0.3236576,16.216928,Clouds
190104.818,-0.0008849659934639931,0.0037989243865013123,-0.040055036544799805,-0.0008668196387588978,0.004572842735797167,0.0007111008162610233,0.31244203,16.216928,Clouds
190104.848,-0.0024726688861846924,-0.014302403666079044,0.05528068542480469,-0.0032974472269415855,-0.004451809450984001,0.00020039686933159828,0.41889462,16.216928,Clouds
190104.878,-0.000707404688000679,0.007841305807232857,-0.04687643051147461,-0.002562653971835971,0.004622608423233032,0.0008874777122400701,0.45300275,16.216928,Clouds
190104.907,-0.003301028162240982,0.0007583082187920809,0.04087698459625244,0.0034347674809396267,-0.006081199739128351,0.0004822701448574662,0.429398,16.216928,Clouds
190104.937,0.0003556506708264351,-0.0027190246619284153,-0.023102283477783203,0.005220827180892229,0.0027633318677544594,-9.873573435470462e-05,0.40140215,16.216928,Clouds
190104.967,-0.0015061162412166595,-0.0023594354279339314,0.01185619831085205,0.002481161616742611,0.0005441661924123764,0.00014699026360176504,0.395227,16.216928,Clouds
190104.997,-0.001964372582733631,-0.004720836877822876,-0.007995367050170898,-0.0018932759994640946,0.0012164026265963912,-0.0002520643756724894,0.37327093,16.216928,Clouds
190105.027,-0.0016935775056481361,-0.0046305181458592415,-0.003264784812927246,-0.0030560328159481287,-0.0010687548201531172,0.0008123933803290129,0.3158087,16.216928,Clouds
190105.056,-0.0011167610064148903,-0.0013591714669018984,0.003219902515411377,-0.0019588922150433064,-0.0018133645644411445,0.0009357123053632677,0.29673043,16.216928,Clouds
190105.086,-4.437938332557678e-05,0.001655991654843092,-0.0009604692459106445,-0.0018309424631297588,-0.001597789698280394,0.0010803393088281155,0.26306123,16.216928,Clouds
190105.116,-0.0013764891773462296,-0.000825878232717514,0.0036327242851257324,-0.0003898662980645895,0.00018956023268401623,0.0002595412661321461,0.2509969,16.216928,Clouds
190105.146,-0.0020363880321383476,-0.00474335253238678,-0.00677335262298584,0.0013175560161471367,0.00017569867486599833,-0.00013722170842811465,0.24889162,16.216928,Clouds
190105.176,-0.002200026996433735,-0.0033231116831302643,0.0032054781913757324,-0.0019060497870668769,0.0009356909431517124,-0.0017481226241216063,0.34469575,16.216928,Clouds
190105.206,-0.0021105119958519936,-0.0039421687833964825,-0.00572127103805542,-0.004506856668740511,0.001223164377734065,0.0008322710637003183,0.32295954,16.216928,Clouds
190105.235,-0.002083192579448223,0.0005821108352392912,0.0054787397384643555,-0.0004785163328051567,-0.0010508055565878749,-0.0006399301928468049,0.40763527,16.216928,Clouds
190105.265,-0.0008968021720647812,0.001633768668398261,-0.004515707492828369,-0.0001284459140151739,0.0016197672812268138,-0.0006012211670167744,0.3944849,16.216928,Clouds
190105.295,-0.0012316368520259857,-0.0013940129429101944,0.005875766277313232,0.0048469053581357,-0.0011796297039836645,-0.0006448103813454509,0.36876988,16.216928,Clouds
190105.325,-0.0018968237563967705,-0.002741732634603977,-0.005155980587005615,0.00010867672972381115,0.00014579507114831358,-0.0004344727494753897,0.40166128,16.216928,Clouds
190105.355,-0.001824803650379181,-0.0029187356121838093,0.0016345381736755371,-0.003267197171226144,-0.0026101490948349237,0.0008732799906283617,0.49732253,16.216928,Clouds
190105.384,-0.0006505846977233887,-0.0013790642842650414,-0.003278970718383789,-2.7267029508948326e-05,0.0017699850723147392,-0.0020886827260255814,0.42903167,16.216928,Clouds
190105.414,-0.0007669469341635704,-0.0008155140094459057,0.0010086894035339355,-0.001301933778449893,0.0008533661020919681,-0.0015786902513355017,0.40728498,16.216928,Clouds
190105.444,-0.0003334656357765198,-0.00034922128543257713,-0.0013563036918640137,-0.00034417747519910336,0.0016019372269511223,-0.0001998130464926362,0.38366985,16.216928,Clouds
190105.474,-0.0023484965786337852,-0.0027301120571792126,-0.00041031837463378906,-0.003675193525850773,-0.0010681789135560393,-0.003100344678387046,0.34754524,16.216928,Clouds
190105.504,-0.0018856460228562355,-0.0028826717752963305,-0.00260770320892334,0.00187232019379735,0.0008444290142506361,-0.0006472753011621535,0.3562709,16.216928,Clouds
190105.534,-0.0010777143761515617,-0.0009435229003429413,0.0006120800971984863,-0.0004532765597105026,0.00044870912097394466,-0.0004689687048085034,0.3961443,16.216928,Clouds
190105.563,-0.00100628100335598,-0.0025816645938903093,-0.00012022256851196289,0.0016854098066687584,-0.0003107927623204887,0.00029155053198337555,0.3687071,16.216928,Clouds
190105.593,-0.0029854783788323402,-0.0028085014782845974,0.0003527998924255371,6.109359674155712e-05,-0.0011594101088121533,0.0020419200882315636,0.34933954,16.216928,Clouds
190105.623,-0.0009557735174894333,0.00013354793190956116,-0.0003947615623474121,-0.0013538856292143464,-0.0014075019862502813,-0.0009323685662820935,0.77094823,16.216928,Clouds
190105.653,-0.001881278119981289,-0.0008215911220759153,-0.0009285211563110352,-0.002320246072486043,-0.00012745123240165412,-0.001101085334084928,0.7373899,16.216928,Clouds
190105.683,-0.000641445629298687,-0.0051671178080141544,0.008257269859313965,-0.0006424020975828171,-0.0013318364508450031,-0.0010312353260815144,0.6505435,16.216928,Clouds
190105.713,-0.0015049660578370094,0.002196896355599165,-0.003842473030090332,0.0032007829286158085,0.0024274452589452267,0.0002429606392979622,0.6313584,16.216928,Clouds
190105.742,-0.0023119496181607246,-0.000992185203358531,0.005679190158843994,-0.0021664616651833057,-0.0005983425071462989,-0.00021694751922041178,0.5863577,16.216928,Clouds
190105.772,-0.00010398775339126587,-0.007066637277603149,-0.006588757038116455,0.003489272203296423,0.003402531845495105,-0.0015545245260000229,0.5553926,16.216928,Clouds
190105.802,-0.0027036936953663826,0.00024488335475325584,0.002673327922821045,-0.000821924302726984,0.0006086548091843724,-0.001682763802818954,0.5324163,16.216928,Clouds
190105.832,-0.0009675147011876106,-0.00042458181269466877,-0.002987384796142578,-0.00018872786313295364,0.0022172920871526003,-0.0006965260254219174,0.5192915,16.216928,Clouds
190105.862,-0.0017476258799433708,-0.002452337648719549,0.0007507801055908203,-0.0025930507108569145,0.0012031161459162831,0.00043761637061834335,0.50672066,16.216928,Clouds
190105.891,-0.00043497607111930847,-0.002598031423985958,-0.0004394054412841797,0.0006175660528242588,0.0017500179819762707,-0.0009334264905191958,0.49679738,16.216928,Clouds
190105.921,-0.0012755319476127625,-0.0006075073033571243,-5.841255187988281e-05,0.0002513313665986061,0.001084482646547258,0.0009564521024003625,0.4436228,16.216928,Clouds
190105.951,-0.002226024866104126,-0.0029108647722750902,-0.0009437203407287598,-0.0019493961008265615,0.0020832468289881945,0.0009139386238530278,0.4266488,16.216928,Clouds
190105.981,-0.001254507340490818,-0.00044097634963691235,0.0006581544876098633,-0.0005631605163216591,-5.9614525525830686e-05,-0.002308092312887311,0.40238902,16.216928,Clouds
190106.011,1.7406418919563293e-06,-0.00037216185592114925,0.0012072324752807617,-0.00033531244844198227,-0.00039905557059682906,-0.0002503363066352904,0.38332078,16.216928,Clouds
190106.041,-0.0016869483515620232,-0.002780017675831914,-0.0031715035438537598,0.0009600692428648472,0.0002942910068668425,-0.00045109534403309226,0.3682871,16.216928,Clouds
190106.070,-0.004008688032627106,-0.0031332955695688725,-0.001020193099975586,0.0008125316817313433,0.0025367937050759792,-5.0506030675023794e-05,0.33674777,16.216928,Clouds
190106.100,-0.0014080414548516273,0.00010552071034908295,-0.0006999969482421875,-0.0008340554777532816,-0.00044848417746834457,-0.0014247905928641558,0.3197685,16.216928,Clouds
190106.130,-0.0004685809835791588,0.005008642561733723,0.017900466918945312,0.0027461883146315813,-0.00200174143537879,0.0007284835446625948,0.29710376,16.216928,Clouds
190106.160,-0.0011017080396413803,-0.006184034049510956,0.0005512237548828125,0.003973890095949173,0.0001839305623434484,0.0015000980347394943,0.26440135,16.216928,Clouds
190106.190,-0.0029190564528107643,-0.003326868172734976,-0.0014783143997192383,-0.002455589361488819,0.0015673994785174727,-0.0007607167353853583,0.2467291,16.216928,Clouds
190106.220,-0.0017826929688453674,0.00021599442698061466,0.004121303558349609,-0.002289733849465847,-0.0019639988895505667,-0.0028036281000822783,0.2192967,16.216928,Clouds
190106.249,-0.001977565698325634,-0.003588648745790124,-0.006178319454193115,-0.0045915208756923676,0.0010142039973288774,0.00039059549453668296,0.21321543,16.216928,Clouds
190106.279,-0.0015889909118413925,-0.002631752286106348,3.1888484954833984e-05,-0.0022617909125983715,0.00019680017430800945,-0.0015887076733633876,0.20069277,16.216928,Clouds
190106.309,0.0010050060227513313,0.0035719722509384155,-0.00047153234481811523,0.00018060416914522648,0.0024419391993433237,0.0018322101095691323,0.18045577,16.216928,Clouds
190106.339,-0.0019224751740694046,-0.0015331748872995377,0.0025957822799682617,0.0016217101365327835,-0.0001354948035441339,0.0008812990272417665,0.16811477,16.216928,Clouds
190106.369,-0.0034552281722426414,-0.0030203580390661955,-0.0023781657218933105,0.0011576113756746054,-0.0004303740570321679,0.0008187770727090538,0.19612432,16.216928,Clouds
190106.399,-0.0011789603158831596,0.0011937192175537348,0.00035309791564941406,-0.0015555752906948328,0.002493529347702861,0.0019415433052927256,0.18775843,16.216928,Clouds
190106.428,-0.0010558180510997772,-0.001769334077835083,0.0002308487892150879,-0.002210792154073715,-0.00030220107873901725,-0.00038216187385842204,0.17843875,16.216928,Clouds
190106.458,-0.001543404534459114,-0.0042040650732815266,-0.0011879801750183105,0.0003363101277500391,0.0009057663264684379,0.00035240378929302096,0.16702901,16.216928,Clouds
190106.488,-0.0013891533017158508,-0.0013215614017099142,0.00032263994216918945,-0.0012826385209336877,-0.0009882795857265592,-0.0018099783919751644,0.15653989,16.216928,Clouds
190106.518,-0.0028630709275603294,-0.0029636977706104517,-0.0014470815658569336,-0.0003330693580210209,-0.00275174668058753,-0.0008202320314012468,0.14430058,16.216928,Clouds
190106.548,-0.001731795258820057,0.0025432680267840624,0.0013911724090576172,-0.0023657239507883787,-0.0014149666531011462,8.998828707262874e-05,0.15373565,16.216928,Clouds
190106.577,-0.0002238210290670395,-0.00032863463275134563,0.000918269157409668,-0.0002094076480716467,0.000994059955701232,0.0018808487802743912,0.18537627,16.216928,Clouds
190106.607,-0.0001253727823495865,-0.0007849049288779497,-0.002133190631866455,-0.0013573005562648177,-0.0016352658858522773,0.00019826128846034408,0.17122601,16.216928,Clouds
190106.637,-0.0013618255034089088,-0.003935238346457481,-0.0007138252258300781,0.0017195004038512707,-3.85025778086856e-05,-0.0007960315560922027,0.18606028,16.216928,Clouds
190106.667,-0.003568182699382305,-0.0009809623006731272,-0.0016904473304748535,-0.004752242937684059,0.0028297691605985165,-0.00014586379984393716,0.1796292,16.216928,Clouds
190106.697,-0.0004105782136321068,0.0007386431097984314,0.0003237724304199219,-0.0011441397946327925,-0.002424264792352915,0.001992632169276476,0.17572743,16.216928,Clouds
190106.727,0.0005940413102507591,-0.002442364813759923,0.00024777650833129883,-0.00029222830198705196,-0.0010457366006448865,0.0030884842853993177,0.17267874,16.216928,Clouds
190106.756,-0.002672695554792881,-0.00550299184396863,0.001086890697479248,0.001558996271342039,0.0015667065745219588,-0.0002818773500621319,0.18651976,16.216928,Clouds
190106.786,-0.003710350953042507,0.0015937825664877892,-0.004909992218017578,-0.003777494188398123,0.0024369123857468367,0.0021802890114486217,0.17479722,16.216928,Clouds
190106.816,0.0005412688478827477,0.0006880357395857573,-0.0014159083366394043,0.0031573891174048185,-0.0009229893912561238,-0.0027030562050640583,0.1692258,16.216928,Clouds
190106.846,-0.0012536924332380295,-0.0004576162900775671,0.001285254955291748,0.0024950935039669275,-0.002976285060867667,0.00018938397988677025,0.16301157,16.216928,Clouds
190106.876,-0.0039266301319003105,-0.005370697006583214,-0.002529323101043701,0.00244451267644763,0.0023358529433608055,0.0013872141717001796,0.15584764,16.216928,Clouds
190106.905,-0.0013052551075816154,-0.0054928394965827465,-0.002255082130432129,-0.0035471059381961823,-0.00046004069736227393,-0.0006788275204598904,0.15147705,16.216928,Clouds
190106.935,-0.0006025321781635284,0.002946843160316348,0.0020935535430908203,0.0008876165375113487,-0.0024774076882749796,-0.0006924207555130124,0.14644794,16.216928,Clouds
190106.965,-0.0005266470834612846,0.003803085768595338,-1.1801719665527344e-05,0.0007965299300849438,0.002430813852697611,-0.00010092207230627537,0.3100565,16.216928,Clouds
190106.995,-0.0019386978819966316,-0.0028201420791447163,-0.00016415119171142578,-0.0002215588465332985,-0.0010510587599128485,-0.0018271482549607754,0.2936228,16.216928,Clouds
190107.025,-0.003960013389587402,-0.006275982595980167,-0.00674062967300415,-0.002300434745848179,-0.001157109742052853,0.0017716451548039913,0.29215232,16.216928,Clouds
190107.054,-0.000949210487306118,-0.0008060878608375788,-0.015544593334197998,-0.007047649472951889,0.0004030283016618341,0.00010943249799311161,0.2596711,16.216928,Clouds
190107.084,5.4661184549331665e-05,-0.0038275655824691057,0.0103493332862854,-0.0032005466055125,-0.0015706097474321723,-0.0009659600327722728,0.24243098,16.216928,Clouds
190107.114,-0.001402856782078743,0.00686450581997633,-0.005229830741882324,0.0032817143946886063,-0.0013870935654267669,0.0002541599387768656,0.22122051,16.216928,Clouds
190107.144,-0.004315477795898914,-0.0014846248086541891,0.009174883365631104,0.008644036948680878,-0.0003100835019722581,0.0006161079509183764,0.21325125,16.216928,Clouds
190107.174,0.0033134808763861656,-0.00719203008338809,-0.011104226112365723,-0.0022372060921043158,0.002744501456618309,-7.577007636427879e-06,0.21246794,16.216928,Clouds
190107.204,-0.001798463985323906,-0.0033821160905063152,0.0051157474517822266,0.00038481573574244976,-0.0008796234615147114,0.0008682311745360494,0.19512825,16.216928,Clouds
190107.233,-0.005761250853538513,0.005037176422774792,-0.007854104042053223,0.0004552295431494713,3.08977541862987e-05,-0.000698734656907618,0.18590558,16.216928,Clouds
190107.263,-0.00027241744101047516,-0.005235929507762194,0.0027502775192260742,7.539265789091587e-05,-0.000848802737891674,0.0008644856279715896,0.18003647,16.216928,Clouds
190107.293,0.00373291689902544,-0.005080553703010082,-0.001247406005859375,-0.0007272320799529552,-0.00012945555499754846,0.0004915498429909348,0.17582527,16.216928,Clouds
190107.323,-0.005445638671517372,0.004643280990421772,0.0004769563674926758,0.0025373068638145924,0.001245288411155343,0.0017744946526363492,0.1701942,16.216928,Clouds
190107.353,-0.003467676229774952,0.001632862025871873,0.0021706819534301758,0.001868564635515213,-0.0013337498530745506,-0.0007758451392874122,0.18164815,16.216928,Clouds
190107.383,0.00505537074059248,-0.005436684004962444,4.982948303222656e-05,0.0009944331832230091,-8.766904647927731e-05,0.00019671156769618392,0.17152333,16.216928,Clouds
190107.412,-0.0015351027250289917,-0.001016182592138648,-0.0011859536170959473,-0.0019586393609642982,-0.003165254835039377,8.923432324081659e-05,0.15817031,16.216928,Clouds
190107.442,-0.0072868019342422485,-0.0038843611255288124,-0.00037741661071777344,-0.0032397976610809565,0.000896632089279592,-0.0014317412860691547,0.14699808,16.216928,Clouds
190107.472,-0.00025866739451885223,0.0011346123646944761,-0.002071559429168701,-0.0022120128851383924,-0.00036410518805496395,-0.0002527190954424441,0.21674705,16.216928,Clouds
190107.502,0.0023406054824590683,-0.0003583598881959915,0.0022773146629333496,-0.0012103086337447166,-0.0003333664790261537,0.0013022942002862692,0.2108805,16.216928,Clouds
190107.532,-0.002888072282075882,-0.0019723353907465935,-0.00025534629821777344,-0.0006062332540750504,0.0007913695881143212,-0.00011354504385963082,0.20196496,16.216928,Clouds
190107.561,-0.003428778611123562,0.0015367860905826092,-0.0012781023979187012,8.63661989569664e-05,0.0024391640909016132,2.7004454750567675e-05,0.23757766,16.216928,Clouds
190107.591,0.00032868050038814545,-0.003721751505509019,0.0005526542663574219,0.0011397707276046276,0.001090182806365192,3.907526843249798e-05,0.22625959,16.216928,Clouds
190107.621,-0.0011261487379670143,-0.0047826305963099,-0.0015985965728759766,-0.0013196225045248866,-0.00133040442597121,-3.903737524524331e-05,0.21484786,16.216928,Clouds
190107.651,-0.003833552822470665,0.0007271715439856052,0.0003542900085449219,-0.0014464070554822683,0.001325452933087945,0.00020743467030115426,0.20647314,16.216928,Clouds
190107.681,-0.0015491079539060593,-0.00025586108677089214,4.9054622650146484e-05,0.00024372339248657227,0.0014709783717989922,0.000645956490188837,0.20465362,16.216928,Clouds
190107.711,-0.0006451588124036789,-0.0015492227394133806,0.0004304051399230957,0.00038396636955440044,0.0009175254381261766,-0.0006311315228231251,0.19711019,16.216928,Clouds
190107.741,-0.0006824983283877373,-0.0014442522078752518,-0.0012635588645935059,0.003238532692193985,0.0011691416148096323,0.0012670443393290043,0.19262488,16.216928,Clouds
190107.770,-0.0023404406383633614,0.0011932086199522018,-0.0012784004211425781,0.0021448007319122553,0.00041893444722518325,0.000219624926103279,0.18870474,16.216928,Clouds
190107.800,-0.0005220677703619003,-0.0035819816403090954,-0.0010959506034851074,-0.0008178115822374821,0.010639342479407787,-0.0008345700334757566,0.16736902,16.216928,Clouds
190107.830,-0.0032843472436070442,-0.0029622928705066442,-0.004896581172943115,-0.0006093615666031837,0.002840779023244977,0.0021879379637539387,0.21496563,16.216928,Clouds
190107.860,-0.002966751344501972,-0.001019386574625969,-0.0014180541038513184,0.002757042646408081,0.0004425593069754541,0.0015340032987296581,0.19642296,16.216928,Clouds
190107.890,-0.0009208479896187782,-0.0011020577512681484,0.0027022361755371094,0.0026270549278706312,-0.0006473333924077451,0.0010191674809902906,0.18556063,16.216928,Clouds
190107.919,-0.0007238080725073814,0.0018824278376996517,0.0007186532020568848,0.001895570196211338,-0.0019343330059200525,-0.0012872437946498394,0.1797423,16.216928,Clouds
190107.949,-0.0019094087183475494,-0.0023736029397696257,-0.00012040138244628906,0.0010786373168230057,0.0014105908339843154,8.794787572696805e-05,0.1694736,16.216928,Clouds
190107.979,-0.001617315225303173,-0.002086934167891741,-0.001997053623199463,-0.0005440430250018835,0.000549886841326952,-0.000749092607293278,0.34237206,16.216928,Clouds
190108.009,-0.002123071812093258,-0.0003043883480131626,-0.0008219480514526367,-0.0029864900279790163,0.00038562394911423326,0.0001594116329215467,0.30517524,16.216928,Clouds
190108.039,-0.002391815185546875,-0.0008156134281307459,0.002183973789215088,0.004131537862122059,0.002295273821800947,0.0014818841591477394,0.3002013,16.216928,Clouds
190108.069,0.0005898522213101387,-0.0021083017345517874,-0.0024698972702026367,0.0007882574573159218,-0.0006995709845796227,-0.00024685729295015335,0.28941768,16.216928,Clouds
190108.099,-0.00046687014400959015,-0.003293887712061405,-0.007917046546936035,0.00270259496755898,0.0024684364907443523,-0.001851934241130948,0.31858143,16.216928,Clouds
190108.128,-0.0037540746852755547,0.0010378435254096985,-0.0012639164924621582,-0.003628434846177697,0.00017957690579351038,0.0007520047947764397,0.3138357,16.216928,Clouds
190108.158,-0.0011659609153866768,-0.002331729279831052,-0.0007456541061401367,-0.0020886468701064587,-0.0009228901471942663,-0.0009230194264091551,0.29818788,16.216928,Clouds
190108.188,-0.00020187627524137497,-0.001090304460376501,9.381771087646484e-05,-0.0016175006749108434,0.0010224763536825776,0.0013823583722114563,0.2899732,16.216928,Clouds
190108.218,-0.002293146215379238,-0.0006342804990708828,0.0005363821983337402,0.0017366684041917324,0.0008894632919691503,0.0010500459466129541,0.28498888,16.216928,Clouds
190108.248,-0.0019531426951289177,-0.005258486140519381,-0.001386404037475586,0.00038771703839302063,0.0035065736155956984,0.0012140405597165227,0.25048906,16.216928,Clouds
190108.277,-0.001486816443502903,-0.001193794421851635,0.0009025335311889648,0.0014691518153995275,-0.00543762044981122,0.0014612964587286115,0.23315176,16.216928,Clouds
190108.307,-0.00041633471846580505,0.003258619224652648,-0.0127982497215271,0.005010006949305534,0.011224862188100815,-0.0006685975240543485,0.39097154,16.216928,Clouds
190108.337,-0.0009950194507837296,-0.003207145258784294,-0.016582012176513672,-0.00044809654355049133,-0.00111500290222466,0.0005371010629460216,0.37146896,16.216928,Clouds
190108.367,-0.002698216587305069,-0.00094626285135746,0.004261612892150879,0.0019856991712003946,-2.5440280296606943e-05,-0.001989563927054405,0.34941742,16.216928,Clouds
190108.397,-0.0018773796036839485,-0.0017352486029267311,-0.0009570717811584473,-0.0006144011858850718,0.001067913486622274,-0.0003809730405919254,0.30171537,16.216928,Clouds
190108.427,-0.0026388801634311676,-0.004514925181865692,-0.007364988327026367,-0.006078057922422886,-0.008759566582739353,0.001509787980467081,0.29061165,16.216928,Clouds
190108.456,-0.0001669023185968399,-0.0025265810545533895,0.010671615600585938,0.0015704315155744553,0.0003594676381908357,-0.00016962765948846936,0.2633863,16.216928,Clouds
190108.486,-0.0017157411202788353,-0.0014547978062182665,-0.0033972859382629395,-0.004158477298915386,-0.0005197908612899482,0.0004324118490330875,0.2460149,16.216928,Clouds
190108.516,-0.0023987963795661926,-9.371270425617695e-05,0.005895078182220459,-0.00025293161161243916,0.001396466395817697,0.0009384616278111935,0.24081099,16.216928,Clouds
190108.546,-0.000599835067987442,0.0040656803175807,-0.002512693405151367,-0.0022862532641738653,0.0004173582710791379,-0.0007494021556340158,0.22210301,16.216928,Clouds
190108.576,-0.0010347673669457436,-0.005680904723703861,-0.000849604606628418,-0.0018571169348433614,-0.0009017417905852199,-0.0006323658162727952,0.21163295,16.216928,Clouds
190108.605,-0.0013165278360247612,-0.0022339189890772104,0.0004930496215820312,0.00025827460922300816,-0.003195562632754445,-0.0005454547936096787,0.26480547,16.216928,Clouds
190108.635,-0.001840365119278431,0.0033886514138430357,-0.0024366378784179688,-0.0008123160805553198,-5.915790097787976e-05,0.0008472274639643729,0.2494081,16.216928,Clouds
190108.665,-0.0007121749222278595,-0.0038808065000921488,0.0034531354904174805,0.0015171885024756193,-0.0028396069537848234,0.00021760034724138677,0.234682,16.216928,Clouds
190108.695,0.000441601499915123,-0.003765285247936845,-0.006724178791046143,-0.0010713620577007532,0.00014042994007468224,-3.252568421885371e-05,0.21282977,16.216928,Clouds
190108.729,-0.0030485205352306366,0.0019290167838335037,0.002461850643157959,-0.000742774922400713,-0.0022739272098988295,0.00023789305123500526,0.20740004,16.216928,Clouds
190108.758,-0.004130191169679165,0.00015396717935800552,-0.0010020732879638672,0.001190102193504572,-0.001335655339062214,-0.0022814455442130566,0.24199165,16.216928,Clouds
190108.788,0.002420668490231037,-0.003189890878275037,0.002293825149536133,-0.004265183117240667,-0.000491239654365927,-0.000938056327868253,0.24215634,16.216928,Clouds
190108.818,-0.00023314636200666428,-0.0029430121649056673,0.002034485340118408,0.0016204467974603176,-0.0005839579971507192,-0.0004966167616657913,0.23403038,16.216928,Clouds
190108.848,-0.003999244421720505,0.0012977493461221457,-0.0022072792053222656,-0.0013171496102586389,0.00234939344227314,-0.002780192531645298,0.22212517,16.216928,Clouds
190108.878,-0.00043147895485162735,-0.0017796214669942856,0.0005997419357299805,-0.004338313825428486,-0.0008417228818871081,0.00031000652234070003,0.2158467,16.216928,Clouds
190108.908,-0.0008010435849428177,-0.0014754480216652155,-0.0008955001831054688,-0.000652714166790247,0.00039025902515277267,-0.0007169707678258419,0.20237833,16.216928,Clouds
190108.937,-0.0013292133808135986,-0.0015744459815323353,3.510713577270508e-05,-0.00039223628118634224,-0.0010957150952890515,0.00024054318782873452,0.19597517,16.216928,Clouds
190108.967,-0.0008280482143163681,-0.0019442669581621885,-0.001460254192352295,-0.001413114950992167,7.034044392639771e-05,0.00068289675982669,0.18962468,16.216928,Clouds
190108.997,-0.00021346285939216614,-0.002125044818967581,-0.0005903244018554688,6.369990296661854e-05,8.402242383453995e-05,0.002764663193374872,0.1762264,16.216928,Clouds
190109.027,-0.0017197439447045326,0.00026912055909633636,-0.0008193254470825195,-0.00033178250305354595,-0.0015212883008643985,-0.0006586981471627951,0.17140329,16.216928,Clouds
190109.057,-0.0010216152295470238,-0.0008608479984104633,-0.0009869933128356934,0.0006282385438680649,-0.001744569162838161,-0.0016148940194398165,0.17009339,16.216928,Clouds
190109.086,0.0009371880441904068,-0.0021542042959481478,0.000737309455871582,0.00014998158439993858,0.0014214136172086,0.0011708339443430305,0.16186418,16.216928,Clouds
190109.116,-0.001525508239865303,-0.0013586445711553097,-0.0016582012176513672,0.0009100234601646662,-0.0011700253235176206,-0.0018513316754251719,0.1559405,16.216928,Clouds
190109.146,-0.0017521018162369728,-0.00026998273096978664,-0.0006663799285888672,-0.0007150913588702679,-0.0015716352500021458,0.0013391601387411356,0.26765153,16.216928,Clouds
190109.176,-0.0016377698630094528,-0.0014692030381411314,-0.0016887784004211426,0.0011638617143034935,-0.0006873958627693355,-8.597271516919136e-06,0.38708454,16.216928,Clouds
190109.206,-0.0006669340655207634,-0.0013367452193051577,0.0015463829040527344,-0.0007684922311455011,-0.00028185624978505075,0.0016384727787226439,0.32987776,16.216928,Clouds
190109.236,-0.002289658412337303,-0.0005331903230398893,-0.0027108192443847656,-0.0010678800754249096,0.0010587910655885935,7.020554039627314e-05,0.30873454,16.216928,Clouds
190109.265,-0.0024350713938474655,-0.0016850244719535112,0.00037097930908203125,-0.0011912134941667318,-0.0007757868734188378,0.0020311460830271244,0.28668812,16.216928,Clouds
190109.295,-0.000720856711268425,-0.00041736429557204247,0.0010729432106018066,0.001128805335611105,-0.0003936515422537923,0.0003840749559458345,0.25686407,16.216928,Clouds
190109.325,-0.001534956507384777,0.00124998833052814,-0.001947939395904541,0.0022276402451097965,0.0004902094951830804,-0.0002779616042971611,0.24550903,16.216928,Clouds
190109.355,-0.0012519126757979393,-0.002074447926133871,-0.0014445781707763672,0.0032718933653086424,0.0017798515036702156,0.0019644899293780327,0.25254866,16.216928,Clouds
190109.385,-0.000896235927939415,-0.0020858803763985634,-0.0009868144989013672,0.0037358414847403765,-0.0005154398386366665,0.00021557617583312094,0.3288546,16.216928,Clouds
190109.415,-0.0024538394063711166,-0.001285129925236106,-0.00026929378509521484,0.0024750803131610155,8.034237544052303e-05,0.00034331975621171296,0.31212786,16.216928,Clouds
190109.444,-0.002211892046034336,-0.0034474018029868603,-0.0016881823539733887,0.00015995814464986324,-0.0006522592739202082,0.00018627961981110275,0.28584644,16.216928,Clouds
190109.474,-0.0006629861891269684,-0.0020376229658722878,0.0005248188972473145,0.0006776794325560331,0.0021479881834238768,0.0009987575467675924,0.26959246,16.216928,Clouds
190109.504,-0.0009245583787560463,-6.144633516669273e-06,-0.00048226118087768555,0.0009181005880236626,-0.00015096255810931325,0.00039500088314525783,0.24695462,16.216928,Clouds
190109.534,-0.0013570822775363922,2.5465385988354683e-05,-0.0007112026214599609,0.00117595586925745,0.0010690368944779038,0.0001897286856546998,0.23417233,16.216928,Clouds
190109.564,-0.0008550863713026047,-0.00010462291538715363,-0.0010622143745422363,0.001348183024674654,0.00046044139890000224,0.002209353493526578,0.22663577,16.216928,Clouds
190109.594,-0.0016001490876078606,-0.000877538463100791,-0.00013118982315063477,0.0011759826447814703,0.000181242183316499,-0.001936533721163869,0.33338767,16.216928,Clouds
190109.623,-0.0007710950449109077,-0.0033887550234794617,0.0010745525360107422,-0.0009884820319712162,-0.0003786312590818852,0.0018949296791106462,0.3280524,16.216928,Clouds
190109.653,-0.0019039735198020935,6.425403989851475e-05,-0.0035947561264038086,0.002166178310289979,-0.0010373237309977412,-4.340888699516654e-05,0.28991112,16.216928,Clouds
190109.683,-0.0016935253515839577,-0.0014274816494435072,0.0020812153816223145,-0.002046554582193494,-0.0007848789682611823,0.0018538860604166985,0.26947716,16.216928,Clouds
190109.713,0.0006313854828476906,-0.001711757853627205,-0.002038300037384033,0.0003618290647864342,-0.0012138140155002475,0.0004970498848706484,0.24906771,16.216928,Clouds
190109.743,-0.0008655386045575142,-0.00017292192205786705,-2.4080276489257812e-05,-0.0001328380312770605,0.0012940085725858808,-0.00014709483366459608,0.31264335,16.216928,Clouds
190109.773,-0.0008971197530627251,5.6035351008176804e-05,-0.000268399715423584,-0.00015813042409718037,-0.00012161413906142116,0.0005558465491048992,0.32525867,16.216928,Clouds
190109.802,-0.0013157175853848457,-0.0024453967344015837,-0.002740204334259033,-0.0002970451023429632,-0.00024259541532956064,-0.000493940431624651,0.33004332,16.216928,Clouds
190109.832,-0.0018963003531098366,-0.0022828797809779644,-0.0010160207748413086,-0.00285193114541471,0.0005749191623181105,0.0017048395238816738,0.32116973,16.216928,Clouds
190109.862,-0.0023200707510113716,-0.0009753592312335968,-0.00260317325592041,-0.0016145758563652635,0.0007728039636276662,0.0012947822688147426,0.31298465,16.216928,Clouds
190109.892,-0.0009848875924944878,0.0005196861457079649,0.0026764273643493652,0.005084093660116196,-0.00045986895565874875,-0.0011899486416950822,0.2956624,16.216928,Clouds
190109.921,-0.001915224827826023,-0.001422068802639842,-0.004968464374542236,-0.0012596584856510162,0.001241976162418723,0.0009265383123420179,0.2778173,16.216928,Clouds
190109.951,-0.0015068789944052696,-0.0019480709452182055,0.0019592642784118652,0.0014108899049460888,-0.0012402778957039118,-0.0008762163924984634,0.26027396,16.216928,Clouds
190109.981,-0.0012014452368021011,-0.000138372415676713,-0.0020846128463745117,0.0010641717817634344,0.0023251071106642485,-0.0010650483891367912,0.25111485,16.216928,Clouds
190110.011,-0.0012433938682079315,-0.0042840586975216866,-0.0006960630416870117,-0.001980877947062254,0.002330771181732416,-0.0013550808653235435,0.24425012,16.216928,Clouds
190110.041,-0.0014125313609838486,-0.0022443190682679415,-0.002039313316345215,-0.001114560291171074,-0.00018595921574160457,-0.00116950913798064,0.2363841,16.216928,Clouds
190110.071,-0.002142115496098995,0.0010924250818789005,0.000737607479095459,-0.0014065582072362304,0.001833499176427722,0.0006237335037440062,0.23189078,16.216928,Clouds
190110.100,0.0010440750047564507,0.0002831374295055866,0.000889897346496582,-0.0002762759104371071,-0.0012175440788269043,-0.0025844848714768887,0.2140861,16.216928,Clouds
190110.130,-0.00045660510659217834,-0.00398937426507473,-0.0043901801109313965,-0.005310903303325176,0.004422532860189676,-0.0008452649344690144,0.20832908,16.216928,Clouds
190110.160,-0.0016173897311091423,-0.002609989605844021,0.0036505460739135742,-0.001248636981472373,-0.0005425070412456989,-0.0033704559318721294,0.22606295,16.216928,Clouds
190110.190,-0.0014364579692482948,0.0029309112578630447,-0.0017815232276916504,0.0005677146837115288,0.0008249531383626163,0.000675446237437427,0.20695521,16.216928,Clouds
190110.220,-0.0015570670366287231,0.0017129168845713139,0.003864467144012451,0.0008840225636959076,-0.0019031402189284563,0.000990646192803979,0.1980742,16.216928,Clouds
190110.250,3.6236830055713654e-05,-0.0016927430406212807,-0.0038870573043823242,-0.0013339727884158492,-0.0005184399778954685,0.0009079505107365549,0.2106728,16.216928,Clouds
190110.279,0.0005666371434926987,-0.0018609082326292992,0.0015454292297363281,0.0004099032375961542,0.0002173059619963169,-0.00034255185164511204,0.22217813,16.216928,Clouds
190110.309,-0.00205098744481802,1.483946107327938e-05,-0.0022388100624084473,0.0014528569299727678,0.0015243561938405037,0.0005957976100035012,0.21425423,16.216928,Clouds
190110.339,-0.002896977588534355,-0.001955769956111908,-0.0016590356826782227,-0.0020348888356238604,0.0002608709910418838,0.001901595969684422,0.43171573,16.216928,Clouds
190110.369,-0.0002894466742873192,-0.0015742795076221228,0.001056671142578125,-0.0025871701072901487,0.0016774052055552602,0.00031239676172845066,0.40381914,16.216928,Clouds
190110.399,0.0004470003768801689,-0.00014824606478214264,-0.0024376511573791504,-0.0012440317077562213,-0.0010454857256263494,-0.0007033643196336925,0.34427476,16.216928,Clouds
190110.428,-0.0015097297728061676,-0.00038467044942080975,0.002399623394012451,0.0036228953395038843,-0.002467000624164939,-0.0011277811136096716,0.32164124,16.216928,Clouds
190110.458,-0.001081668771803379,-0.001397403422743082,-0.0034140348434448242,-0.000870357034727931,0.0011314392322674394,-0.0013310553040355444,0.29798174,16.216928,Clouds
190110.488,-7.695425301790237e-05,-0.0023823026567697525,0.0021554231643676758,0.0015282842796295881,0.0005283865612000227,-0.0009377844398841262,0.2591187,16.216928,Clouds
190110.518,-0.000927233137190342,-0.0005537210963666439,-0.0016744136810302734,-0.0006819749251008034,0.0005479353712871671,-0.0013671137858182192,0.24124616,16.216928,Clouds
190110.548,-0.0021500345319509506,0.0009972124826163054,0.0002632737159729004,0.0007471120916306973,-0.0017305867513641715,0.0006276585627347231,0.33231097,16.216928,Clouds
190110.578,-0.00021774321794509888,-0.0021435313392430544,0.00020200014114379883,-0.002849940210580826,-0.00206586136482656,0.002125414554029703,0.3440533,16.216928,Clouds
190110.607,-0.0015773307532072067,-0.0024368902668356895,-0.0019645094871520996,0.002736752387136221,-0.00020144323934800923,-0.0014066528528928757,0.32762405,16.216928,Clouds
190110.637,-0.001709158532321453,0.0010585766285657883,0.0005991458892822266,-0.0011269543319940567,0.0014755791053175926,-0.002420300617814064,0.31136304,16.216928,Clouds
190110.667,-0.0006013205274939537,-0.0009076250717043877,-0.0007894635200500488,-0.0008308319374918938,-0.0014419518411159515,0.0005979244597256184,0.29676172,16.216928,Clouds
190110.697,0.0002242540940642357,-0.002917818957939744,0.0004928708076477051,0.0008225466590374708,-0.002486678073182702,-0.0005669768434017897,0.26566753,16.216928,Clouds
190110.727,-0.0024927454069256783,0.0004591674078255892,-0.0016584992408752441,-0.0010474424343556166,-0.0021680942736566067,-0.00023957446683198214,0.35435373,16.216928,Clouds
190110.757,-0.001254422590136528,0.00023264368064701557,0.0006307363510131836,4.420545883476734e-05,-0.0005187506321817636,-0.0015531484968960285,0.33797866,16.216928,Clouds
190110.786,-0.0002380087971687317,-0.0025648789014667273,-0.001551508903503418,-0.0021467912010848522,-0.0022812942042946815,0.0007863023784011602,0.28725648,16.216928,Clouds
190110.816,-0.0017926665022969246,-0.000783528434112668,-0.0003459453582763672,-0.00247466703876853,0.0004687082546297461,-0.0004775718552991748,0.27242535,16.216928,Clouds
190110.846,-0.002099180594086647,0.0011295629665255547,-0.0009714961051940918,-0.00020285951904952526,-0.0009713267791084945,0.00048468325985595584,0.23911548,16.216928,Clouds
190110.876,0.0003798939287662506,-0.0018763532862067223,0.000279843807220459,-0.002600331325083971,-0.0014359322376549244,-0.0006893733516335487,0.22579172,16.216928,Clouds
190110.906,-0.0003767767921090126,-0.0004906316753476858,-7.098913192749023e-05,0.004288106225430965,-0.0020249898079782724,-0.00062666175654158,0.22350225,16.216928,Clouds
190110.936,-0.0023836689069867134,0.0005005192942917347,-0.0012306571006774902,0.00027060857973992825,-0.00019920544582419097,0.00021430765627883375,0.2616535,16.216928,Clouds
190110.965,-0.0016158465296030045,-0.0039113108068704605,-0.0003911256790161133,0.0019973530434072018,0.00010032205318566412,-0.0009541582548990846,0.26040953,16.216928,Clouds
190110.995,0.0002852613106369972,-0.0016359244473278522,-0.002878129482269287,0.0036030318588018417,-0.00016624099225737154,-0.0002810117439366877,0.24779062,16.216928,Clouds
190111.025,-0.00022412650287151337,0.0002949091140180826,0.0006011128425598145,-0.0002746626269072294,-0.0030966668855398893,0.002018153900280595,0.23113358,16.216928,Clouds
190111.055,-0.0011600777506828308,-0.0022637054789811373,-0.0015501976013183594,0.0028486638329923153,-0.00018543092301115394,-0.0006737264338880777,0.22197229,16.216928,Clouds
190111.085,-0.0010081715881824493,-0.0006268068682402372,0.001440286636352539,-0.0031558184418827295,0.000880628707818687,-8.896202780306339e-05,0.21269393,16.216928,Clouds
190111.114,-0.001047663390636444,-0.0006136749871075153,-0.001473844051361084,0.001603490673005581,-0.0008706746739335358,2.1980202291160822e-05,0.19881931,16.216928,Clouds
190111.144,-0.001743396744132042,-0.002379929879680276,-0.0007263422012329102,0.00032452307641506195,0.0004224514705128968,-8.740206249058247e-05,0.21586472,16.216928,Clouds
190111.174,-0.0005469340831041336,-0.0008440322708338499,-0.0007719993591308594,0.000388959888368845,-0.0010238816030323505,-0.0009046898921951652,0.21037927,16.216928,Clouds
190111.204,-0.0004780041053891182,-0.0007343401666730642,-0.0010464787483215332,-0.004435251001268625,-0.0013682739809155464,-0.0013930449495092034,0.20031634,16.216928,Clouds
190111.234,-0.001749599352478981,0.00014610844664275646,-0.0002378225326538086,8.972594514489174e-05,-0.0012262435629963875,-0.0015140647301450372,0.18682109,16.216928,Clouds
190111.264,-0.0011802436783909798,-1.0395422577857971e-05,-0.0001919269561767578,0.002909645903855562,0.00045914610382169485,-0.0018962185131385922,0.18065803,16.216928,Clouds
190111.294,-0.0009535085409879684,-0.0015535354614257812,-0.0004819631576538086,0.00042947567999362946,0.0014704604400321841,0.0012794560752809048,0.16706693,16.216928,Clouds
190111.323,-0.0012528374791145325,-8.895411156117916e-05,-0.000848233699798584,0.002119336510077119,0.0001904825767269358,-0.0010104221291840076,0.16181941,16.216928,Clouds
190111.353,-0.0007929904386401176,-1.90013088285923e-06,6.73532485961914e-05,0.0018121486064046621,0.0008050609612837434,0.0010717697441577911,0.17137673,16.216928,Clouds
190111.383,-0.001363947056233883,-0.0011229519732296467,-0.000375211238861084,0.0008404487743973732,0.0010799785377457738,-0.0020190896466374397,0.16066968,16.216928,Clouds
190111.413,-0.0007238434627652168,-0.001376699423417449,-0.0009551048278808594,-0.0005549381021410227,0.0005700420588254929,0.0025732736103236675,0.15815099,16.216928,Clouds
190111.442,-0.0014408500865101814,-0.00026940228417515755,-0.001016378402709961,-0.00160393794067204,0.0015816801460459828,-0.0018050593789666891,0.15154241,16.216928,Clouds
190111.472,-0.0002721976488828659,-0.0003407718613743782,-0.0003299713134765625,-0.004395779222249985,-0.00032121132244355977,-0.0012834803201258183,0.15493777,16.216928,Clouds
190111.502,-0.001092439517378807,-0.0004931958392262459,-0.0006197690963745117,0.0007956200279295444,0.0015138457529246807,-0.0003758440143428743,0.15032208,16.216928,Clouds
190111.532,-0.001073244959115982,-0.0010563062969595194,0.0010131001472473145,-0.0015861608553677797,-0.0009649781277403235,-0.0006171102286316454,0.1452536,16.216928,Clouds
190111.562,-0.0017500463873147964,-0.0019870188552886248,-0.00032955408096313477,-0.0010537630878388882,0.0004772412357851863,-0.0005181195447221398,0.14322214,16.216928,Clouds
190111.592,-0.0006412146613001823,-0.00023612193763256073,-0.0015199780464172363,-0.0004180844407528639,-0.0001068753917934373,-0.001807136693969369,0.14459158,16.216928,Clouds
190111.621,-0.0006082635372877121,-0.001478876220062375,-0.0006958842277526855,-0.0011295403819531202,-0.0011461200192570686,0.0012764784041792154,0.14081092,16.216928,Clouds
190111.651,0.00013363175094127655,-0.0009411121718585491,0.00021970272064208984,-0.0013073845766484737,0.001349206198938191,0.0004992274334654212,0.1415005,16.216928,Clouds
190111.681,-0.001556316390633583,-0.0009385354351252317,-0.0009093284606933594,0.0003058540169149637,0.001190081937238574,0.0008121745777316391,0.261356,16.216928,Clouds
190111.711,-0.0008264705538749695,-0.001955571351572871,-0.001183629035949707,-0.0005016976501792669,0.0028907994274049997,-0.0006221939693205059,0.25876233,16.216928,Clouds
190111.741,-0.00013361405581235886,-0.0016030699480324984,-0.0008783936500549316,-0.0031334885861724615,0.00024971782113425434,-0.0005850823363289237,0.25309917,16.216928,Clouds
190111.771,-0.0013707568868994713,-0.0006739480886608362,-0.0009396672248840332,-0.0014128279872238636,0.0010093885939568281,-0.000732195214368403,0.22640635,16.216928,Clouds
190111.800,-0.0016853203997015953,-0.0012115200515836477,-0.0006648898124694824,0.0006969738751649857,0.001474438700824976,-0.00012323970440775156,0.21429045,16.216928,Clouds
190111.830,7.695518434047699e-05,0.00010231905616819859,-0.0009398460388183594,-0.0019111884757876396,0.0012590078404173255,0.00020938296802341938,0.1929127,16.216928,Clouds
190111.860,0.00022410042583942413,-0.0005209252703934908,0.0015778541564941406,1.6078120097517967e-05,0.0015897838165983558,0.0010192138142883778,0.29725614,16.216928,Clouds
190111.890,-0.0004237638786435127,-0.0012779142707586288,-0.0033354759216308594,0.0011506355367600918,-0.000116112751129549,0.00035799830220639706,0.27636144,16.216928,Clouds
190111.920,-0.0023156097158789635,-0.002005410846322775,-0.00011563301086425781,0.002624181332066655,0.00010422635386930779,0.001077371183782816,0.25947422,16.216928,Clouds
190111.950,-0.00042452849447727203,-0.00047701760195195675,-0.001046597957611084,-0.0006533933337777853,0.0023163645528256893,-0.0009474407997913659,0.2452525,16.216928,Clouds
190111.979,-0.0012378068640828133,0.0007273810915648937,-0.0021606087684631348,0.001417684368789196,0.0009317263029515743,0.000835343380458653,0.21834591,16.216928,Clouds
190112.009,-0.0004986245185136795,-0.00030137598514556885,0.0018981695175170898,0.0026886356063187122,0.0009420797578059137,-0.0009260401711799204,0.2929739,16.216928,Clouds
190112.039,-0.0031875791028141975,0.0006550734397023916,-0.005441009998321533,1.9154977053403854e-05,0.0010157290380448103,-0.000522151414770633,0.2923616,16.216928,Clouds
190112.069,0.00011644512414932251,-0.002635996090248227,0.0033631324768066406,-0.0005257579032331705,-0.00039993488462641835,0.0015537301078438759,0.2769028,16.216928,Clouds
190112.099,0.0002759266644716263,-0.0023003583773970604,-0.005197048187255859,-0.001211381983011961,0.0013301606522873044,0.0009389611659571528,0.2700284,16.216928,Clouds
190112.128,-0.002064960077404976,0.0030423046555370092,0.004675745964050293,0.002012614393606782,-0.0005520273116417229,0.0017293047858402133,0.56429327,16.216928,Clouds
190112.158,-0.0013984031975269318,-0.002259369008243084,-0.004448831081390381,0.0002017614897340536,-0.0012942843604832888,0.0001264138554688543,0.55662763,16.216928,Clouds
190112.189,-0.0006521977484226227,-0.0017658746801316738,0.0006018280982971191,0.00048175849951803684,0.0015235502505674958,0.0006526386714540422,0.5410871,16.216928,Clouds
190112.214,-0.0013903137296438217,0.001053875545039773,0.0016545653343200684,0.0019425933714956045,-0.00021156753064133227,0.0021486764308065176,0.45966753,16.216928,Clouds
190112.244,-0.0014401786029338837,-0.0022044421639293432,-0.005303442478179932,0.00013470882549881935,0.001456927857361734,0.0001928822894115001,0.4434028,16.216928,Clouds
190112.274,-0.0005419421941041946,-0.0023386762477457523,0.0018835067749023438,-0.0014833189779892564,-0.0022262732964009047,-0.0003741892287507653,0.4128216,16.216928,Clouds
190112.304,-0.001109769567847252,0.002830758225172758,-0.003655076026916504,-0.001412845216691494,-0.0015632564900442958,-0.001380836358293891,0.36752635,16.216928,Clouds
190112.334,-0.001919509842991829,0.0013393883127719164,0.004782974720001221,-7.022405043244362e-05,-0.00033214470022358,-9.647535625845194e-05,0.35418043,16.216928,Clouds
190112.363,4.883110523223877e-05,-0.0033706501126289368,-0.005287826061248779,-0.0022501719649881124,0.0004928424605168402,-9.707262506708503e-05,0.3199653,16.216928,Clouds
190112.393,-0.0010706083849072456,-0.0009776654187589884,0.001029372215270996,-0.0016888855025172234,0.0003059624577872455,-0.0003598444163799286,0.29915598,16.216928,Clouds
190112.423,-0.0014822734519839287,-0.0014394926838576794,-0.0018238425254821777,-0.002146543934941292,-0.0014946224400773644,8.279629400931299e-05,0.28244475,16.216928,Clouds
190112.453,-0.0011237245053052902,-0.0016668247990310192,-0.001442253589630127,0.0003639739006757736,-0.0006071690586395562,0.0008637616410851479,0.24779698,16.216928,Clouds
190112.483,-0.0002652956172823906,-0.0007287543267011642,0.0015488266944885254,-0.0009332345798611641,-0.003353971056640148,-0.001014431589283049,0.23564775,16.216928,Clouds
190112.512,-0.00233585387468338,0.0017581158317625523,-0.0027388930320739746,-0.0008471331093460321,-0.0026871354784816504,-0.001408376730978489,0.21943516,16.216928,Clouds
190112.542,-0.0010264934971928596,-0.0017654264811426401,0.0010452866554260254,0.001469628419727087,0.0013836167054250836,-0.0005803017411381006,0.20667452,16.216928,Clouds
190112.572,0.00023068860173225403,-0.0029420035425573587,-0.0020218491554260254,-0.002260500332340598,0.0002762452932074666,-2.685398794710636e-05,0.31042135,16.216928,Clouds
190112.602,-0.00025561079382896423,-0.0003400582354515791,2.300739288330078e-05,0.002518140710890293,-0.0015983950579538941,0.0007691605715081096,0.3321383,16.216928,Clouds
190112.632,-0.0014191754162311554,-0.00028471043333411217,-0.0011977553367614746,0.0011466217692941427,0.0006139663164503872,-0.001237072516232729,0.31294894,16.216928,Clouds
190112.662,-0.00044543761759996414,-0.0011197344865649939,-0.00026684999465942383,-0.0052475156262516975,0.0011828364804387093,-0.001920689595863223,0.28394252,16.216928,Clouds
190112.691,0.0002994909882545471,-0.0013658006209880114,0.00133514404296875,-0.004857709165662527,-0.0026050235610455275,-0.0003663221141323447,0.3641514,16.216928,Clouds
190112.721,-0.0008176574483513832,0.001006970414891839,-0.003165721893310547,0.002225469099357724,-0.0008553818333894014,0.0010733380913734436,0.34966147,16.216928,Clouds
190112.751,-0.00019438937306404114,-0.0001523138489574194,0.002068042755126953,-0.002427479950711131,-7.863360224291682e-05,-0.0017174932872876525,0.33422887,16.216928,Clouds
190112.781,-0.0008308691903948784,-0.001324427779763937,-0.0032877326011657715,0.002061703708022833,-0.0005289360415190458,-0.0021210070699453354,0.3149448,16.216928,Clouds
190112.811,-5.6867487728595734e-05,-0.003018859541043639,0.0011681318283081055,0.0011994168162345886,0.0010154639603570104,-0.0016186425928026438,0.5027004,16.216928,Clouds
190112.844,-0.0006811246275901794,0.0011111281346529722,-0.00115126371383667,-0.0012588582467287779,-0.0009913822868838906,-0.001164844143204391,0.47341928,16.216928,Clouds
190112.874,-0.0011756494641304016,0.0018005943857133389,-0.0014410018920898438,0.0001407102681696415,0.000422244134824723,0.0004767333739437163,0.41638124,16.216928,Clouds
190112.904,-0.0009244047105312347,-0.002432816429063678,0.00026792287826538086,-0.0008669865783303976,-0.0031270808540284634,-0.002519231988117099,0.38422793,16.216928,Clouds
190112.934,-0.0009811343625187874,-0.0019199489615857601,-0.003500699996948242,-0.0008116438984870911,-0.0001180924300570041,-0.001367158256471157,0.37136158,16.216928,Clouds
190112.964,-0.00012441445142030716,0.00018309266306459904,0.00031429529190063477,-0.0005503809079527855,0.00012329980381764472,-0.0015837913379073143,0.3292263,16.216928,Clouds
190112.994,-0.0018164850771427155,0.0008108378387987614,-0.003714263439178467,-0.0015699143987149,0.0029815547168254852,0.001228507375344634,0.31181368,16.216928,Clouds
190113.023,-0.0008080946281552315,-0.001226011198014021,0.0008172988891601562,-7.420475594699383e-05,-0.0002235179126728326,-0.000517368083819747,0.29556495,16.216928,Clouds
190113.053,0.0005944063887000084,-0.0026507077272981405,-0.0022957324981689453,-0.001385194482281804,-0.0016706337919458747,0.001858638133853674,0.29109406,16.216928,Clouds
190113.083,-0.0012577734887599945,-0.0007508646231144667,0.00048172473907470703,-0.0022592125460505486,0.0009525727946311235,-0.00012601318303495646,0.26980472,16.216928,Clouds
190113.113,-0.0007396014407277107,-0.00022817682474851608,-0.001074671745300293,0.00032597361132502556,0.00036177108995616436,0.0023651057854294777,0.2548629,16.216928,Clouds
190113.143,0.0001618601381778717,-0.001634795917198062,0.00035941600799560547,-0.0017082610866054893,-0.0007240418344736099,0.0007986987475305796,0.28723985,16.216928,Clouds
190113.172,-0.0025072479620575905,0.0004085930995643139,-0.001669764518737793,0.0019133274909108877,0.0013447118690237403,-0.00028995994944125414,0.25520614,16.216928,Clouds
190113.202,-0.0017957426607608795,0.00018381141126155853,0.0005581974983215332,0.0016661565750837326,-0.00016197070362977684,6.5784523030743e-05,0.23930116,16.216928,Clouds
190113.232,0.00088504608720541,-0.004189931321889162,-0.002066314220428467,-0.0002870562020689249,-7.315607217606157e-05,-0.0008699885220266879,0.22739261,16.216928,Clouds
190113.262,0.0013401629403233528,-0.0015211680438369513,0.0019006729125976562,0.0007290658541023731,-0.0006524180062115192,0.001798211713321507,0.20368084,16.216928,Clouds
190113.292,-0.002292138524353504,0.002726561389863491,-0.0032875537872314453,-0.0017578559927642345,0.0011881152167916298,0.0014571022475138307,0.19871148,16.216928,Clouds
190113.321,0.0002872273325920105,-0.0010242639109492302,0.0008169412612915039,0.0006545707583427429,-0.001438493956811726,0.0015113730914890766,0.18867508,16.216928,Clouds
190113.351,0.0017094211652874947,-0.0014855004847049713,-0.00025153160095214844,-0.0020698043517768383,-0.001976259518414736,-7.587170694023371e-05,0.18267004,16.216928,Clouds
190113.381,-0.001994125545024872,0.0003932514227926731,-0.0020975470542907715,-0.0010330509394407272,-0.0011711186962202191,-0.0014420461375266314,0.18246625,16.216928,Clouds
190113.411,-0.001925482414662838,0.001495359931141138,0.0023124217987060547,0.004421227145940065,-0.00106725562363863,-0.0018484669271856546,0.1710817,16.216928,Clouds
190113.441,0.000337270088493824,0.0009051882661879063,0.003503084182739258,0.0008447272703051567,-0.0022005934733897448,-0.0015841260319575667,0.22190653,16.216928,Clouds
190113.471,0.000253528356552124,-0.005247641354799271,0.003030538558959961,0.0033279117196798325,-0.0003437309933360666,-0.001801811158657074,0.25742593,16.216928,Clouds
190113.500,-0.0019108196720480919,-0.002563414629548788,-0.00754392147064209,9.225890971720219e-05,0.0016894489526748657,-0.0001128131989389658,0.25100282,16.216928,Clouds
190113.530,-0.003929308615624905,-0.004238536581397057,0.004372954368591309,0.00023928936570882797,0.0006742661935277283,0.0004501570947468281,0.31724596,16.216928,Clouds
190113.560,-0.0010206401348114014,0.0018810178153216839,-0.005988180637359619,-0.00036446843296289444,0.0012185004306957126,0.0008271286496892571,0.2783643,16.216928,Clouds
190113.590,0.00209902785718441,0.0022801144514232874,0.007134199142456055,0.0014629876241087914,-0.0003872840607073158,9.543987107463181e-05,0.26909697,16.216928,Clouds
190113.620,-0.00038551632314920425,-0.005004513077437878,-0.005438745021820068,-0.00016917171888053417,0.0024950760416686535,-0.0011497903615236282,0.24679768,16.216928,Clouds
190113.650,-0.0025175148621201515,0.00018175318837165833,0.0008327364921569824,0.001323792850598693,-0.001372530939988792,0.0004836285370402038,0.22965801,16.216928,Clouds
190113.679,-0.001573752611875534,-0.0033193344715982676,-0.003317534923553467,-0.00077583990059793,0.0011171564692631364,-0.0002914880169555545,0.21560523,16.216928,Clouds
190113.709,-0.00040302984416484833,-0.006124056875705719,-0.001395106315612793,-0.0026946135330945253,0.0004089557914994657,-0.001698760548606515,0.2781493,16.216928,Clouds
190113.739,-0.00040081609040498734,0.0012501152232289314,0.001686692237854004,-0.00023778597824275494,0.0013047567335888743,-0.002458870643749833,0.26005024,16.216928,Clouds
190113.769,-0.0006202422082424164,0.0052568381652235985,-0.0007087588310241699,0.0015578854363411665,0.00020570974447764456,0.0003480540181044489,0.23008448,16.216928,Clouds
190113.799,-0.00040673185139894485,-0.004558080341666937,0.0007560849189758301,0.0012945171911269426,0.000415528891608119,0.0006170140113681555,0.22830833,16.216928,Clouds
190113.828,-0.00047275517135858536,-0.0041086142882704735,-0.0029366016387939453,0.002212849911302328,0.0014085681177675724,-0.0005143714370205998,0.21618053,16.216928,Clouds
190113.858,-0.0015883669257164001,0.002253058133646846,0.0017628669738769531,0.00032655196264386177,0.00015384334255941212,0.00042379292426630855,0.21047792,16.216928,Clouds
190113.888,-0.00022218190133571625,-0.0034031947143375874,-0.0032420754432678223,0.001995176775380969,0.0016865911893546581,0.0020731075201183558,0.20122951,16.216928,Clouds
190113.918,0.0015450194478034973,-0.0023282659240067005,0.0012287497520446777,-9.833183139562607e-05,-0.0012589773396030068,-0.001273513538762927,0.18262908,16.216928,Clouds
190113.948,-0.001594647765159607,0.003201185492798686,0.0002675056457519531,0.0010961981024593115,0.0034886011853814125,0.0005110105266794562,0.17143144,16.216928,Clouds
190113.978,-0.0012341421097517014,-0.0012653518933802843,-6.9141387939453125e-06,0.0004810797981917858,-0.0015124185010790825,-0.0008489851607009768,0.1650441,16.216928,Clouds
190114.008,0.0003811735659837723,-0.007829166017472744,-0.0017465949058532715,-0.0009064229670912027,0.0010863970965147018,0.0005674110143445432,0.15498285,16.216928,Clouds
190114.037,-0.0017551388591527939,0.00015275925397872925,-0.0009532570838928223,-0.0022999695502221584,0.0006688334397040308,-0.00035449914867058396,0.15125377,16.216928,Clouds
190114.067,-0.00011019967496395111,0.001040151109918952,0.001640617847442627,0.0007631981279700994,0.00044915993930771947,0.0017353525618091226,0.14800519,16.216928,Clouds
190114.097,-0.0005964087322354317,-0.002624406246468425,-0.0025404691696166992,-0.0015438219998031855,0.0006872786325402558,0.0003198829072061926,0.24462949,16.216928,Clouds
190114.127,-0.0001310529187321663,0.0014651664532721043,0.00246429443359375,0.0006395378150045872,-0.000741699943318963,-0.001257051364518702,0.30844256,16.216928,Clouds
190114.157,-0.0012811766937375069,0.00032020313665270805,-0.002525150775909424,-8.572428487241268e-05,-0.0002423558325972408,-4.9794616643339396e-05,0.27207252,16.216928,Clouds
190114.187,-0.0012585660442709923,-0.004680079873651266,-0.0015330910682678223,7.43598211556673e-05,-0.0013360659359022975,-3.984750946983695e-05,0.26452821,16.216928,Clouds